#timestamp [ns],w_RS_S_x [rad s^-1],w_RS_S_y [rad s^-1],w_RS_S_z [rad s^-1],a_RS_S_x [m s^-2],a_RS_S_y [m s^-2],a_RS_S_z [m s^-2] 
1631512917.3348241,0.040479,0.010353,0.010676,9.385000,1.070000,-1.719000
1631512917.4047472,0.022981,0.006043,0.005203,9.361000,1.043000,-1.652000
1631512917.4977262,0.032970,-0.003741,-0.010791,9.392000,1.047000,-1.681000
1631512917.5937595,0.019562,-0.012185,-0.015577,9.325000,1.067000,-1.702000
1631512917.7061603,-0.044238,-0.020098,-0.013314,9.382000,1.054000,-1.705000
1631512917.7911787,-0.068007,-0.005898,-0.003758,9.376000,1.062000,-1.689000
1631512917.9037447,-0.021941,0.016928,-0.004714,9.409000,1.044000,-1.603000
1631512918.0049932,0.022814,0.039479,0.000811,9.369000,1.053000,-1.655000
1631512918.1075537,0.024958,0.048326,0.018667,9.362000,1.079000,-1.630000
1631512918.2033570,0.019343,0.044437,0.056764,9.375000,1.050000,-1.572000
1631512918.3067904,0.024649,0.034372,0.064177,9.443000,0.970000,-1.557000
1631512918.4061186,0.023853,0.037514,0.067251,9.403000,0.958000,-1.508000
1631512918.5061831,0.018407,0.024885,0.045073,9.422000,0.861000,-1.430000
1631512918.5981722,0.027173,0.021608,0.038607,9.405000,0.844000,-1.486000
1631512918.6847005,0.040047,0.027695,0.048322,9.431000,0.825000,-1.405000
1631512918.8094893,0.042011,0.063417,0.069221,9.414000,0.669000,-1.349000
1631512918.8909669,-0.001601,0.074993,0.076039,9.415000,0.701000,-1.412000
1631512918.9968059,-0.064509,0.064303,0.074481,9.434000,0.569000,-1.241000
1631512919.0980318,-0.037119,0.051159,0.035257,9.453000,0.459000,-1.113000
1631512919.2047818,0.013793,0.055867,-0.004315,9.416000,0.481000,-1.135000
1631512919.2963967,-0.024352,-0.010770,-0.037521,9.351000,0.566000,-1.193000
1631512919.4074640,-0.039364,-0.056399,-0.064572,9.426000,0.558000,-1.179000
1631512919.5269380,0.005683,-0.070201,-0.087006,9.445000,0.668000,-1.295000
1631512919.6075904,0.017160,-0.066824,-0.084840,9.444000,0.787000,-1.382000
1631512919.7002630,0.001358,-0.072124,-0.072688,9.380000,0.886000,-1.487000
1631512919.7801890,-0.027153,-0.089134,-0.061714,9.405000,0.912000,-1.470000
1631512919.9109826,0.007374,-0.080206,-0.044605,9.419000,0.902000,-1.516000
1631512920.0302255,0.026002,-0.078390,-0.030495,9.383000,1.006000,-1.629000
1631512920.1001492,0.006158,-0.071341,-0.011834,9.399000,0.983000,-1.678000
1631512920.2167494,-0.007641,-0.031566,0.019944,9.380000,0.988000,-1.827000
1631512920.3001370,0.013072,0.001549,0.022055,9.401000,0.955000,-1.806000
1631512920.4247375,0.022827,0.028981,0.016976,9.357000,0.943000,-1.780000
1631512920.4957018,0.015564,-0.005178,0.000991,9.350000,0.905000,-1.693000
1631512920.5994747,0.038900,-0.074861,-0.035813,9.365000,0.872000,-1.630000
1631512920.7071016,0.053778,-0.078281,-0.047129,9.336000,0.948000,-1.765000
1631512920.8060055,0.008625,-0.060249,-0.033570,9.339000,1.026000,-1.918000
1631512920.9064891,-0.012210,-0.047465,-0.023288,9.335000,1.032000,-1.889000
1631512920.9902022,-0.021450,-0.033484,-0.013992,9.292000,1.080000,-1.959000
1631512921.0918949,-0.034216,-0.030490,-0.005930,9.289000,1.103000,-2.005000
1631512921.2153139,-0.073806,-0.035699,0.011415,9.299000,1.168000,-2.138000
1631512921.2989223,-0.111365,-0.027314,0.023844,9.297000,1.098000,-2.095000
1631512921.3968959,-0.114220,-0.016516,0.025804,9.316000,1.035000,-2.026000
1631512921.4960785,-0.054853,0.025126,0.013267,9.322000,0.999000,-1.985000
1631512921.6010549,-0.022703,0.075482,0.013970,9.341000,1.063000,-2.031000
1631512921.6930654,-0.011913,0.100892,0.011257,9.323000,1.071000,-1.900000
1631512921.8077271,-0.000060,0.119017,0.012129,9.359000,1.074000,-1.832000
1631512921.9093211,0.015132,0.110434,0.006472,9.331000,1.035000,-1.667000
1631512922.0240374,0.019277,0.088305,0.005582,9.310000,1.046000,-1.640000
1631512922.0943758,0.002202,0.055543,0.004617,9.339000,1.047000,-1.568000
1631512922.2062476,-0.001935,0.007087,-0.002853,9.312000,1.010000,-1.454000
1631512922.2945452,0.012252,-0.019681,-0.005690,9.365000,0.990000,-1.461000
1631512922.4058845,0.025617,-0.042297,0.002912,9.333000,1.035000,-1.561000
1631512922.4973428,0.012510,-0.043532,0.022962,9.383000,1.041000,-1.642000
1631512922.5943098,0.019591,-0.028490,0.044716,9.335000,0.928000,-1.618000
1631512922.6965768,0.044687,-0.038896,0.046846,9.354000,0.904000,-1.622000
1631512922.8203239,0.060244,-0.070324,0.036277,9.321000,0.907000,-1.740000
1631512922.9048007,0.071257,-0.084608,0.022473,9.374000,0.845000,-1.793000
1631512922.9886377,0.076573,-0.081170,0.010405,9.399000,0.825000,-1.835000
1631512923.1151493,0.072983,-0.055935,-0.011515,9.328000,0.801000,-2.004000
1631512923.2270989,0.058665,-0.055915,-0.038516,9.314000,0.816000,-2.034000
1631512923.3065948,0.051171,-0.058694,-0.057554,9.305000,0.859000,-2.100000
1631512923.3928189,0.037828,-0.039973,-0.050054,9.356000,0.904000,-1.955000
1631512923.5060608,0.059142,0.000259,-0.022920,9.325000,0.949000,-1.963000
1631512923.6071503,0.032235,0.001906,-0.011715,9.298000,0.927000,-2.043000
1631512923.6972325,0.003309,-0.008505,-0.015948,9.278000,0.984000,-2.171000
1631512923.7981098,-0.006481,-0.016294,-0.021640,9.300000,0.971000,-2.180000
1631512923.8890762,0.011065,-0.009165,-0.017329,9.304000,0.964000,-2.221000
1631512924.0005639,0.039254,0.008267,-0.018957,9.298000,0.949000,-2.182000
1631512924.0904081,0.045147,0.013129,-0.031429,9.301000,1.002000,-2.192000
1631512924.1883383,0.039345,0.043397,-0.032318,9.278000,1.001000,-2.190000
1631512924.3056855,0.019352,0.078254,-0.031783,9.284000,1.051000,-2.138000
1631512924.4134564,0.005656,0.089980,-0.024201,9.295000,1.088000,-1.990000
1631512924.5036774,0.005689,0.080762,-0.005422,9.324000,1.068000,-1.854000
1631512924.6064487,0.019465,0.069049,0.012881,9.361000,1.066000,-1.823000
1631512924.6863146,0.021544,0.055434,0.027503,9.330000,1.048000,-1.782000
1631512924.8344924,-0.008600,0.000000,0.052227,9.339000,0.979000,-1.781000
1631512924.9977124,0.037194,-0.099399,0.077787,9.279000,0.847000,-1.861000
1631512925.0968401,0.024551,-0.139877,0.078761,9.286000,0.792000,-1.977000
1631512925.1919930,-0.024722,-0.159833,0.032380,9.345000,0.733000,-2.185000
1631512925.3039751,-0.052706,-0.042601,0.010923,9.434000,0.713000,-2.272000
1631512925.4095085,-0.014053,0.054668,0.005118,9.364000,0.675000,-2.166000
1631512925.5075030,0.018082,0.081531,-0.011007,9.338000,0.691000,-2.129000
1631512925.5874841,0.031634,0.080184,-0.020723,9.289000,0.736000,-2.030000
1631512925.7075098,0.038480,0.074726,-0.022141,9.337000,0.783000,-1.994000
1631512925.7916598,0.027805,0.091104,-0.014013,9.361000,0.760000,-1.916000
1631512925.9061058,0.064923,0.117472,0.003565,9.326000,0.765000,-1.677000
1631512926.0039442,0.019128,0.063848,-0.010435,9.310000,0.814000,-1.727000
1631512926.1257138,-0.039160,-0.003012,0.000108,9.333000,0.817000,-1.763000
1631512926.2056098,-0.036934,-0.023982,0.003981,9.408000,0.749000,-1.692000
1631512926.2974360,0.011525,-0.010244,0.005167,9.426000,0.759000,-1.694000
1631512926.3968830,0.032665,0.036790,0.021377,9.403000,0.783000,-1.716000
1631512926.5238259,0.007536,0.040952,0.004230,9.316000,0.825000,-1.703000
1631512926.5959401,0.003956,0.023618,-0.015188,9.377000,0.778000,-1.683000
1631512926.6878271,0.013218,0.050910,-0.020350,9.437000,0.744000,-1.616000
1631512926.7851620,-0.008159,0.051703,-0.031559,9.403000,0.802000,-1.463000
1631512926.9015365,0.011538,0.046743,-0.048554,9.491000,0.767000,-1.343000
1631512927.0071123,0.055284,0.071928,-0.056118,9.424000,0.824000,-1.282000
1631512927.1014199,0.092005,0.073815,-0.055587,9.437000,0.906000,-1.209000
1631512927.2058642,0.080333,0.054585,-0.036105,9.425000,0.946000,-1.198000
1631512927.3171000,0.033928,0.030412,-0.008921,9.400000,0.957000,-1.289000
1631512927.3913331,-0.008343,0.002368,0.009071,9.408000,0.982000,-1.287000
1631512927.4971831,-0.025409,-0.012407,0.022894,9.429000,0.979000,-1.250000
1631512927.5918775,-0.025987,-0.018054,0.028294,9.404000,0.955000,-1.307000
1631512927.6972253,0.002372,-0.006083,0.017662,9.440000,0.843000,-1.333000
1631512927.7945273,0.027221,0.024756,0.021544,9.401000,0.888000,-1.345000
1631512927.9195082,-0.000082,0.008340,0.022698,9.427000,0.827000,-1.306000
1631512927.9907081,0.004531,0.009675,0.014387,9.448000,0.788000,-1.261000
1631512928.0886862,0.043089,0.026283,0.000746,9.454000,0.794000,-1.247000
1631512928.2051842,0.046279,0.006552,-0.001410,9.410000,0.834000,-1.270000
1631512928.3063905,0.051884,-0.035085,0.005082,9.421000,0.798000,-1.227000
1631512928.4039207,0.062417,-0.063950,0.015842,9.427000,0.833000,-1.304000
1631512928.4873593,0.057152,-0.086349,0.018765,9.372000,0.831000,-1.360000
1631512928.6016836,0.064180,-0.100764,0.016709,9.440000,0.810000,-1.387000
1631512928.6958842,0.064234,-0.094210,0.021600,9.427000,0.830000,-1.560000
1631512928.8062289,0.036448,-0.075953,0.028001,9.429000,0.736000,-1.647000
1631512928.9167979,0.039867,-0.063252,0.026414,9.397000,0.639000,-1.761000
1631512928.9960856,0.033181,-0.083226,0.040184,9.379000,0.624000,-1.817000
1631512929.0930462,0.056992,-0.133261,0.062761,9.377000,0.506000,-1.864000
1631512929.1896110,0.062735,-0.165029,0.032964,9.372000,0.475000,-2.079000
1631512929.3051083,0.005451,-0.129460,-0.022292,9.370000,0.543000,-2.228000
1631512929.4068084,-0.006416,-0.054691,-0.063652,9.396000,0.527000,-2.283000
1631512929.5037689,0.029261,0.037842,-0.093280,9.373000,0.607000,-2.342000
1631512929.6061449,0.038373,0.100134,-0.093163,9.346000,0.705000,-2.312000
1631512929.7344303,0.018658,0.110979,-0.034262,9.295000,0.793000,-2.087000
1631512929.8016124,0.016775,0.080795,0.032865,9.285000,0.751000,-2.068000
1631512929.9024034,0.063062,0.098528,0.076174,9.421000,0.666000,-1.962000
1631512929.9964716,0.089275,0.146212,0.076637,9.410000,0.652000,-1.860000
1631512930.1014981,0.067010,0.121731,0.026354,9.342000,0.532000,-1.686000
1631512930.2161272,0.083925,0.101496,-0.005500,9.375000,0.489000,-1.522000
1631512930.2959950,0.103875,0.060559,-0.033382,9.368000,0.526000,-1.530000
1631512930.3929574,0.070127,0.012923,-0.053560,9.365000,0.656000,-1.537000
1631512930.5077014,-0.009601,-0.028565,-0.071678,9.366000,0.691000,-1.609000
1631512930.6053090,-0.017672,-0.034758,-0.080104,9.423000,0.659000,-1.555000
1631512930.7104020,0.038181,0.013934,-0.062510,9.447000,0.720000,-1.546000
1631512930.7864764,0.047581,0.025012,-0.047103,9.368000,0.818000,-1.619000
1631512930.9061437,0.027687,-0.044735,-0.041195,9.324000,0.857000,-1.620000
1631512931.0041349,0.038515,-0.054508,-0.019820,9.381000,0.847000,-1.613000
1631512931.1172369,0.037548,-0.052206,0.003780,9.405000,0.871000,-1.707000
1631512931.2036664,0.023509,-0.052748,0.015099,9.369000,0.855000,-1.732000
1631512931.3167796,0.061207,-0.050012,0.012366,9.375000,0.780000,-1.754000
1631512931.4024508,0.081821,-0.032973,0.008638,9.398000,0.808000,-1.864000
1631512931.4893665,0.083370,-0.019976,-0.001688,9.355000,0.830000,-1.878000
1631512931.6043065,0.076842,-0.035615,-0.028294,9.346000,0.809000,-1.907000
1631512931.7194643,0.054693,-0.049262,-0.051066,9.359000,0.875000,-1.999000
1631512931.8072655,0.064950,-0.030952,-0.060943,9.395000,0.844000,-1.975000
1631512931.9007554,0.092595,0.042444,-0.051628,9.435000,0.903000,-1.891000
1631512932.0107486,0.094876,0.104452,-0.033440,9.431000,0.911000,-1.821000
1631512932.1259673,0.086649,0.095703,-0.038740,9.321000,0.983000,-1.785000
1631512932.1874576,0.055908,0.055811,-0.048846,9.314000,0.990000,-1.770000
1631512932.3076134,0.042087,0.014376,-0.052344,9.349000,0.983000,-1.663000
1631512932.3967135,0.097475,0.002087,-0.051067,9.364000,1.014000,-1.601000
1631512932.5099378,0.097459,-0.005925,-0.025789,9.350000,1.114000,-1.736000
1631512932.6162908,0.073275,-0.025789,-0.010616,9.340000,1.069000,-1.700000
1631512932.6966741,0.073984,-0.021852,0.000646,9.352000,1.051000,-1.653000
1631512932.7958572,0.093630,-0.057383,-0.017392,9.261000,1.060000,-1.773000
1631512932.9138501,0.129765,-0.115530,-0.045094,9.303000,1.055000,-1.889000
1631512932.9877412,0.117150,-0.118288,-0.035481,9.294000,1.154000,-2.068000
1631512933.1068444,0.036883,-0.065494,0.016667,9.328000,1.102000,-2.168000
1631512933.2007654,0.014911,-0.024405,0.046112,9.240000,1.053000,-2.245000
1631512933.3225620,0.025712,-0.003876,0.044181,9.290000,0.945000,-2.165000
1631512933.4018729,0.090724,0.063269,0.046773,9.339000,0.862000,-2.087000
1631512933.4944475,0.147699,0.103331,0.042701,9.279000,0.832000,-2.142000
1631512933.6021383,0.110700,0.055431,0.021493,9.232000,0.860000,-2.166000
1631512933.7178264,0.074777,0.031108,0.015117,9.289000,0.752000,-2.055000
1631512933.8015039,0.082765,0.039244,-0.002838,9.292000,0.782000,-1.997000
1631512933.8908386,0.107929,0.033225,-0.026698,9.277000,0.769000,-2.003000
1631512933.9958034,0.147186,0.024948,-0.035893,9.299000,0.824000,-1.995000
1631512934.1190233,0.126502,0.029131,-0.009755,9.282000,0.878000,-1.995000
1631512934.2082376,0.086294,0.019436,0.015382,9.300000,0.803000,-1.969000
1631512934.2913563,0.075275,0.032691,0.022761,9.341000,0.738000,-1.952000
1631512934.4070923,0.065517,0.063852,0.023674,9.332000,0.653000,-1.895000
1631512934.5061905,0.028027,0.041058,0.025869,9.310000,0.670000,-1.813000
1631512934.6059885,-0.006846,-0.007473,0.019400,9.320000,0.598000,-1.815000
1631512934.6948626,0.009444,-0.032990,0.007339,9.370000,0.534000,-1.768000
1631512934.8174582,0.058723,-0.076650,-0.011551,9.349000,0.600000,-1.819000
1631512934.9370480,0.020750,-0.136378,-0.004094,9.347000,0.658000,-1.933000
1631512935.0166976,-0.040355,-0.143545,0.000111,9.357000,0.627000,-2.032000
1631512935.0972660,-0.036407,-0.109428,0.000379,9.363000,0.562000,-2.148000
1631512935.1950622,-0.012943,-0.051554,-0.005551,9.344000,0.612000,-2.378000
1631512935.3043673,-0.001809,-0.012829,-0.008467,9.264000,0.594000,-2.466000
1631512935.4055572,-0.001093,0.003443,-0.022796,9.330000,0.583000,-2.467000
1631512935.5070674,0.005363,0.048053,-0.045716,9.340000,0.591000,-2.456000
1631512935.5909057,0.044570,0.081275,-0.055740,9.330000,0.667000,-2.233000
1631512935.7106419,0.073593,0.087332,-0.058494,9.325000,0.733000,-2.113000
1631512935.8015335,0.067401,0.090164,-0.062506,9.360000,0.842000,-1.995000
1631512935.9056597,0.067341,0.077651,-0.070883,9.337000,0.838000,-1.923000
1631512935.9777453,0.064288,0.064070,-0.072450,9.303000,0.957000,-1.926000
1631512936.1171823,0.011828,0.039798,-0.047275,9.304000,1.050000,-1.881000
1631512936.2063813,-0.011004,0.048215,-0.019151,9.292000,1.013000,-1.844000
1631512936.3016300,-0.007863,0.063808,0.002045,9.290000,1.036000,-1.870000
1631512936.4075198,-0.033766,0.051352,-0.003648,9.341000,0.981000,-1.921000
1631512936.5235398,0.009717,0.043917,-0.009315,9.350000,0.958000,-1.766000
1631512936.6073263,0.023750,0.023101,-0.000376,9.353000,0.967000,-1.603000
1631512936.7014687,0.050947,-0.033439,0.023447,9.369000,1.002000,-1.550000
1631512936.8067803,0.066091,-0.050804,0.018356,9.352000,0.921000,-1.519000
1631512936.9022520,0.024579,-0.054530,0.010982,9.348000,1.031000,-1.759000
1631512937.0063939,-0.004205,-0.054288,-0.021204,9.361000,0.979000,-1.716000
1631512937.0862134,-0.003089,-0.034588,-0.037484,9.377000,0.944000,-1.813000
1631512937.2175410,0.040510,-0.021198,-0.025964,9.324000,0.898000,-1.843000
1631512937.2979002,0.075127,-0.044302,-0.013670,9.328000,0.937000,-1.958000
1631512937.4167340,0.057990,-0.058420,0.011424,9.317000,1.063000,-1.975000
1631512937.4964271,0.023614,-0.044108,0.007578,9.319000,1.017000,-1.964000
1631512937.5918627,0.041820,0.036553,-0.008811,9.382000,0.924000,-1.932000
1631512937.7140911,0.082183,0.090066,-0.022487,9.332000,0.950000,-1.917000
1631512937.7844305,0.079335,0.095027,-0.029343,9.354000,0.935000,-1.911000
1631512937.9078183,0.080958,0.083901,-0.033979,9.337000,0.962000,-1.796000
1631512937.9870117,0.062430,0.038276,-0.053786,9.318000,0.991000,-1.699000
1631512938.1138258,0.023968,-0.034000,-0.047628,9.305000,1.087000,-1.681000
1631512938.1863484,0.031449,-0.074582,-0.038227,9.321000,1.104000,-1.654000
1631512938.3058064,0.072555,-0.075497,-0.032175,9.349000,1.141000,-1.841000
1631512938.3951323,0.097276,-0.028972,-0.022358,9.340000,1.151000,-1.966000
1631512938.4934068,0.062680,0.002268,-0.008037,9.286000,1.145000,-2.067000
1631512938.5978956,0.020892,0.012343,0.000937,9.270000,1.172000,-2.097000
1631512938.6867917,0.008807,0.022653,-0.001881,9.295000,1.106000,-2.037000
1631512938.7962232,0.050430,0.054349,0.009564,9.290000,1.096000,-2.005000
1631512938.9202557,0.015238,0.082101,0.033847,9.325000,1.080000,-1.797000
1631512939.0031419,-0.012066,0.103137,0.037475,9.305000,1.028000,-1.862000
1631512939.0876787,0.003046,0.112837,0.028907,9.326000,0.936000,-1.777000
1631512939.2069983,0.058478,0.078988,-0.015156,9.336000,0.924000,-1.658000
1631512939.3270187,0.041474,0.048253,-0.010880,9.360000,1.025000,-1.515000
1631512939.3862164,0.049783,0.039024,-0.012552,9.345000,0.990000,-1.579000
1631512939.4906628,0.057204,0.033677,-0.013450,9.417000,0.952000,-1.593000
1631512939.6055903,0.057627,0.064687,-0.006257,9.359000,0.991000,-1.531000
1631512939.7123253,0.038582,0.046955,-0.015071,9.403000,1.035000,-1.446000
1631512939.7920189,0.045654,0.014982,-0.011039,9.401000,1.043000,-1.398000
1631512939.8968520,0.064776,0.020284,0.005712,9.406000,1.039000,-1.277000
1631512939.9959064,0.059017,0.037775,0.006742,9.401000,1.029000,-1.313000
1631512940.0966315,0.046278,0.007228,-0.012664,9.377000,1.067000,-1.264000
1631512940.2156165,0.035386,-0.072528,-0.013185,9.381000,1.075000,-1.320000
1631512940.2905114,0.018041,-0.115506,-0.018594,9.355000,1.143000,-1.359000
1631512940.3932629,0.010864,-0.093844,-0.010822,9.408000,1.087000,-1.559000
1631512940.5283315,0.000670,-0.030378,-0.003686,9.369000,1.090000,-1.654000
1631512940.6035459,-0.016149,-0.052363,-0.010734,9.333000,1.091000,-1.766000
1631512940.7060101,-0.053022,-0.083283,0.003733,9.404000,1.089000,-1.873000
1631512940.7858036,-0.032367,-0.048623,0.026583,9.426000,1.024000,-1.797000
1631512940.9226820,0.002704,0.021571,0.004572,9.437000,1.060000,-1.570000
1631512941.0098307,0.004853,0.037350,-0.040262,9.399000,1.068000,-1.532000
1631512941.0923526,0.019931,0.029950,-0.050613,9.356000,1.080000,-1.553000
1631512941.2082558,0.047782,0.036272,-0.001501,9.332000,1.053000,-1.635000
1631512941.3165820,0.098288,0.052276,-0.004067,9.336000,0.992000,-1.594000
1631512941.4048271,0.078890,0.059641,-0.042288,9.325000,1.118000,-1.624000
1631512941.4904726,0.012059,0.034443,-0.088411,9.334000,1.199000,-1.480000
1631512941.6073840,-0.025100,0.006404,-0.108132,9.321000,1.214000,-1.365000
1631512941.7323895,0.024010,-0.016281,-0.111548,9.298000,1.368000,-1.526000
1631512941.8872757,0.056379,0.043319,-0.124123,9.269000,1.579000,-1.561000
1631512942.0057411,0.003812,0.054011,-0.067921,9.204000,1.762000,-1.498000
1631512942.1033273,-0.018525,0.053928,0.000547,9.272000,1.706000,-1.459000
1631512942.2179728,0.015278,0.096369,0.045740,9.286000,1.636000,-1.396000
1631512942.3176460,0.009927,0.075903,0.074780,9.250000,1.665000,-1.284000
1631512942.4005165,0.018241,0.038038,0.066872,9.339000,1.553000,-1.271000
1631512942.4964628,-0.011225,-0.008490,0.054666,9.307000,1.548000,-1.314000
1631512942.6361160,-0.012931,-0.022296,0.064928,9.377000,1.351000,-1.234000
1631512942.8034880,0.022479,-0.044644,0.106426,9.409000,1.279000,-1.263000
1631512942.8865423,0.013909,-0.045538,0.104942,9.415000,1.194000,-1.287000
1631512942.9911287,0.011513,-0.021440,0.064699,9.441000,1.102000,-1.330000
1631512943.1119990,-0.039596,-0.040112,0.023511,9.412000,1.120000,-1.374000
1631512943.2033908,-0.053888,-0.051906,-0.000299,9.427000,1.053000,-1.445000
1631512943.3055806,-0.015383,-0.060707,-0.027144,9.439000,1.065000,-1.391000
1631512943.3974850,0.039425,-0.050947,-0.049323,9.430000,1.120000,-1.388000
1631512943.5366693,0.022070,-0.030947,-0.048895,9.422000,1.224000,-1.614000
1631512943.7165859,0.021139,0.063262,-0.016868,9.355000,1.269000,-1.619000
1631512943.7959692,-0.006506,0.065519,-0.015533,9.353000,1.277000,-1.622000
1631512943.8909283,0.020570,0.053116,-0.010402,9.362000,1.202000,-1.520000
1631512944.0040352,0.070425,0.055337,-0.021721,9.253000,1.303000,-1.788000
1631512944.1073251,0.042690,0.079035,0.005671,9.423000,1.291000,-1.411000
1631512944.2067432,0.011470,0.090641,0.028005,9.433000,1.269000,-1.341000
1631512944.2865114,0.020374,0.136983,0.043711,9.431000,1.139000,-1.190000
1631512944.4333711,-0.054887,0.154455,0.086916,9.402000,1.156000,-0.956000
1631512944.6140382,-0.100585,0.066894,0.049331,9.402000,0.908000,-0.722000
1631512944.6975484,-0.070753,0.006635,0.053922,9.446000,0.878000,-0.686000
1631512944.7895350,-0.044640,-0.037917,0.040962,9.439000,0.843000,-0.797000
1631512944.9290488,-0.014376,-0.086039,0.005707,9.444000,0.867000,-0.945000
1631512944.9987392,-0.034827,-0.088913,-0.021627,9.454000,0.932000,-0.970000
1631512945.0994399,-0.050383,-0.072535,-0.013991,9.488000,0.841000,-1.109000
1631512945.1910825,0.013493,-0.041522,-0.037644,9.490000,0.900000,-1.176000
1631512945.3127670,0.072913,-0.007606,-0.043918,9.534000,0.938000,-1.129000
1631512945.4034302,0.076973,0.025933,-0.025255,9.510000,1.035000,-1.052000
1631512945.5067799,0.046279,0.020345,-0.012479,9.468000,1.116000,-1.015000
1631512945.5922842,0.004203,0.000426,-0.014047,9.453000,1.085000,-0.961000
1631512945.7293260,0.004374,-0.042901,0.001079,9.445000,1.087000,-1.045000
1631512945.7975471,-0.001971,-0.045768,0.011952,9.447000,1.109000,-1.024000
1631512945.8956165,0.008015,-0.006620,0.010956,9.486000,1.034000,-1.033000
1631512945.9980330,-0.010667,0.052016,0.029607,9.526000,1.077000,-1.121000
1631512946.1226792,-0.028726,0.094132,0.050229,9.486000,1.052000,-0.940000
1631512946.2090065,-0.005391,0.075598,0.022960,9.478000,1.005000,-0.857000
1631512946.2877619,0.009511,0.067580,0.007066,9.470000,0.944000,-0.792000
1631512946.3955154,0.020871,0.041238,-0.000697,9.488000,0.985000,-0.795000
1631512946.5252717,-0.004964,0.000687,-0.003374,9.414000,0.930000,-0.839000
1631512946.6079843,-0.015948,-0.032165,-0.010231,9.448000,0.932000,-0.794000
1631512946.6929054,0.007174,-0.034076,0.003648,9.485000,0.913000,-0.841000
1631512946.8064318,0.037834,-0.033297,0.027037,9.519000,0.876000,-0.858000
1631512946.9259384,0.009605,-0.028793,0.025109,9.551000,0.963000,-0.808000
1631512947.0054963,-0.038515,-0.020510,-0.001682,9.509000,0.941000,-0.819000
1631512947.0940177,-0.064798,-0.011096,-0.011320,9.521000,0.908000,-0.790000
1631512947.1903517,-0.036920,-0.028268,-0.012552,9.427000,0.844000,-0.986000
1631512947.3086109,-0.031476,-0.047012,-0.011959,9.462000,0.908000,-1.076000
1631512947.3930809,-0.014958,-0.013313,0.004332,9.497000,0.872000,-1.049000
1631512947.5050447,0.005921,0.024156,0.026714,9.491000,0.887000,-0.976000
1631512947.5961576,-0.002960,0.039946,0.021513,9.458000,0.958000,-0.928000
1631512947.7094054,-0.027452,0.050988,0.004989,9.488000,0.862000,-0.992000
1631512947.7989528,-0.024849,0.027421,-0.013067,9.394000,0.870000,-1.043000
1631512947.8825290,-0.010200,-0.020325,-0.038975,9.452000,0.859000,-0.973000
1631512947.9952552,0.009414,-0.038902,-0.034619,9.465000,0.914000,-1.058000
1631512948.1134083,0.046367,-0.054675,-0.006692,9.437000,0.906000,-1.142000
1631512948.1914194,0.031415,-0.056977,0.012708,9.502000,0.988000,-1.020000
1631512948.3054416,-0.005316,0.002211,-0.010275,9.521000,1.008000,-0.928000
1631512948.3972840,-0.030151,0.005596,-0.030155,9.467000,1.028000,-0.981000
1631512948.5171123,-0.029767,-0.022533,-0.029113,9.483000,1.033000,-0.908000
1631512948.5964248,-0.016118,-0.012337,-0.039828,9.488000,1.077000,-0.981000
1631512948.7012033,0.001156,-0.010509,-0.040199,9.466000,1.145000,-0.966000
1631512948.7956939,-0.035325,0.013555,-0.035259,9.477000,1.270000,-1.099000
1631512948.8968265,-0.058669,0.029177,-0.015440,9.447000,1.216000,-1.052000
1631512948.9929123,-0.039361,0.033552,0.020644,9.423000,1.182000,-1.033000
1631512949.0877738,-0.010036,0.014432,0.041213,9.468000,1.112000,-0.985000
1631512949.1820273,0.022602,-0.001970,0.040244,9.439000,1.079000,-0.952000
1631512949.3265181,0.007349,-0.005700,0.025834,9.461000,1.067000,-0.994000
1631512949.4057922,-0.025662,0.013831,0.024810,9.453000,1.042000,-1.100000
1631512949.4905655,-0.031977,0.038095,0.024438,9.454000,0.931000,-1.030000
1631512949.5839286,-0.005745,0.047305,0.030083,9.450000,0.897000,-0.951000
1631512949.7203200,0.024732,-0.050313,0.032616,9.400000,0.893000,-0.881000
1631512949.7966602,0.015306,-0.075780,0.003367,9.512000,0.917000,-0.856000
1631512949.8962114,0.001259,-0.061678,-0.032889,9.466000,0.889000,-0.913000
1631512949.9914684,0.026576,-0.056568,-0.057450,9.451000,0.929000,-1.077000
1631512950.1116464,0.027964,-0.027420,-0.054007,9.491000,1.074000,-1.198000
1631512950.1995118,-0.010877,0.022883,-0.074155,9.458000,1.148000,-1.235000
1631512950.3069298,-0.054381,0.066420,-0.083415,9.455000,1.252000,-1.245000
1631512950.3912575,-0.077543,0.093954,-0.065608,9.426000,1.258000,-1.070000
1631512950.5236294,-0.046182,0.092162,-0.038880,9.421000,1.366000,-0.973000
1631512950.5919340,-0.040244,0.086447,-0.009673,9.414000,1.372000,-0.974000
1631512950.7054610,-0.037019,0.065600,0.024390,9.452000,1.377000,-0.818000
1631512950.7964275,-0.047260,0.061860,0.020894,9.460000,1.364000,-0.642000
1631512950.9239202,-0.134859,0.004716,0.012284,9.409000,1.398000,-0.595000
1631512950.9967358,-0.165776,-0.044221,-0.000426,9.427000,1.361000,-0.579000
1631512951.1162117,-0.109569,-0.108379,-0.019847,9.460000,1.286000,-0.692000
1631512951.1977992,-0.056164,-0.104517,-0.010432,9.468000,1.268000,-0.832000
1631512951.3242884,-0.003823,-0.075854,0.017272,9.484000,1.368000,-0.852000
1631512951.4064803,-0.045484,-0.078781,0.034743,9.486000,1.414000,-0.745000
1631512951.4985895,-0.081132,-0.067540,0.021774,9.498000,1.360000,-0.794000
1631512951.6066399,-0.086893,-0.017953,-0.031962,9.499000,1.260000,-0.808000
1631512951.7277226,-0.045368,-0.005282,-0.068136,9.405000,1.315000,-1.049000
1631512951.8097568,-0.007872,0.005621,-0.053628,9.449000,1.384000,-1.009000
1631512951.8996518,-0.013145,0.035649,-0.025079,9.440000,1.513000,-1.026000
1631512952.0053384,-0.060255,0.075453,-0.018756,9.411000,1.585000,-1.038000
1631512952.1126025,-0.114399,0.093962,-0.019362,9.388000,1.518000,-0.994000
1631512952.1992116,-0.126734,0.096394,0.000466,9.411000,1.544000,-0.782000
1631512952.2970562,-0.117294,0.086491,0.007463,9.354000,1.488000,-0.586000
1631512952.3937213,-0.086890,0.018961,-0.024794,9.334000,1.536000,-0.478000
1631512952.5022576,-0.055573,-0.006383,-0.037028,9.378000,1.522000,-0.410000
1631512952.6152825,-0.025986,0.023702,-0.009660,9.386000,1.635000,-0.391000
1631512952.6866713,-0.024318,0.045925,0.008632,9.425000,1.655000,-0.454000
1631512952.8267138,-0.037482,0.078034,0.038213,9.375000,1.621000,-0.543000
1631512952.9166062,-0.038727,0.062047,0.031364,9.372000,1.613000,-0.483000
1631512952.9983943,-0.028828,0.008044,-0.001652,9.378000,1.579000,-0.393000
1631512953.1059816,0.004306,-0.010205,-0.010537,9.392000,1.575000,-0.366000
1631512953.1982622,0.021454,-0.005670,0.013756,9.419000,1.617000,-0.254000
1631512953.3202040,-0.021552,0.026834,0.074399,9.460000,1.632000,-0.313000
1631512953.3970706,-0.038864,0.017958,0.122747,9.399000,1.563000,-0.365000
1631512953.5164330,-0.103469,-0.045434,0.163707,9.399000,1.359000,-0.476000
1631512953.5961647,-0.139847,-0.094682,0.170507,9.466000,1.153000,-0.464000
1631512953.7317588,-0.118959,-0.096529,0.089622,9.641000,0.921000,-0.618000
1631512953.8072321,-0.093073,-0.003515,0.061722,9.704000,0.891000,-0.571000
1631512953.8961785,-0.075195,0.104691,0.027129,9.664000,0.861000,-0.474000
1631512954.0074742,-0.064737,0.142180,-0.032603,9.604000,0.895000,-0.265000
1631512954.1075509,-0.082602,0.128754,-0.081830,9.518000,0.986000,-0.039000
1631512954.2138321,-0.066779,0.092777,-0.107734,9.489000,1.045000,0.070000
1631512954.2943482,-0.040614,0.075218,-0.090930,9.496000,1.138000,0.098000
1631512954.4054871,-0.030589,0.085354,-0.051520,9.507000,1.306000,0.143000
1631512954.4996219,-0.090142,0.058884,-0.032205,9.437000,1.397000,0.041000
1631512954.5908239,-0.134427,0.004315,-0.015241,9.384000,1.298000,0.138000
1631512954.6967206,-0.148431,-0.048288,-0.002877,9.453000,1.291000,0.365000
1631512954.7888005,-0.165540,-0.032368,-0.011285,9.475000,1.344000,0.306000
1631512954.9062834,-0.184037,-0.021676,-0.021274,9.457000,1.264000,0.267000
1631512955.0156047,-0.143953,-0.061428,-0.031812,9.379000,1.291000,0.154000
1631512955.0952909,-0.116867,-0.113243,-0.051147,9.408000,1.345000,0.113000
1631512955.1881986,-0.105627,-0.105209,-0.047007,9.471000,1.425000,0.060000
1631512955.3219357,-0.105021,-0.103888,-0.062955,9.422000,1.548000,-0.197000
1631512955.4039965,-0.115004,-0.105926,-0.068791,9.463000,1.575000,-0.263000
1631512955.5061722,-0.101600,-0.083545,-0.065575,9.502000,1.608000,-0.284000
1631512955.5864232,-0.087988,-0.043977,-0.057915,9.552000,1.615000,-0.235000
1631512955.7061896,-0.075134,0.036070,-0.036915,9.507000,1.633000,-0.152000
1631512955.8020549,-0.085658,0.027001,-0.033410,9.425000,1.705000,-0.158000
1631512955.8956459,-0.126439,-0.003500,-0.045389,9.438000,1.743000,-0.191000
1631512955.9966512,-0.123753,0.008893,-0.025018,9.466000,1.742000,-0.125000
1631512956.1288822,-0.049624,0.062897,-0.001344,9.485000,1.675000,-0.051000
1631512956.2934220,-0.000762,0.123123,-0.033661,9.380000,1.759000,0.009000
1631512956.4037268,-0.020405,0.066029,-0.030345,9.330000,1.849000,0.104000
1631512956.4994991,-0.055871,-0.001180,-0.020799,9.358000,1.803000,0.249000
1631512956.6070046,-0.015954,-0.000742,-0.015482,9.445000,1.769000,0.365000
1631512956.6963594,-0.007103,-0.004365,0.004291,9.394000,1.832000,0.280000
1631512956.8058891,0.033262,0.015380,0.061304,9.453000,1.806000,0.369000
1631512956.8909330,0.041758,0.065138,0.107302,9.417000,1.803000,0.371000
1631512957.0146515,0.029495,0.097538,0.098945,9.423000,1.719000,0.364000
1631512957.0967491,-0.012690,0.090734,0.083655,9.398000,1.645000,0.410000
1631512957.1966088,-0.046862,0.023852,0.041712,9.301000,1.561000,0.554000
1631512957.2971618,-0.038884,-0.030034,0.001320,9.388000,1.417000,0.568000
1631512957.4157820,0.021561,-0.012882,-0.039100,9.465000,1.443000,0.485000
1631512957.4953859,0.043678,-0.012378,-0.059633,9.439000,1.525000,0.458000
1631512957.5891461,0.033227,0.002157,-0.047375,9.453000,1.550000,0.479000
1631512957.6876078,0.027540,0.015607,-0.031871,9.419000,1.534000,0.479000
1631512957.8056276,0.065587,0.034395,-0.020864,9.389000,1.594000,0.549000
1631512957.9063127,0.042618,0.034807,-0.005821,9.378000,1.703000,0.536000
1631512957.9860594,0.000477,0.004321,-0.008418,9.355000,1.759000,0.506000
1631512958.1055660,-0.043228,-0.076359,-0.045597,9.321000,1.727000,0.393000
1631512958.2009830,-0.018390,-0.093609,-0.058838,9.404000,1.791000,0.455000
1631512958.2988327,0.019435,-0.050828,-0.034554,9.410000,1.819000,0.398000
1631512958.3965809,0.055420,-0.048552,-0.029779,9.378000,1.908000,0.385000
1631512958.4928699,0.044509,-0.046298,-0.036261,9.362000,1.957000,0.236000
1631512958.6077070,0.026067,0.010724,-0.006743,9.414000,2.000000,0.117000
1631512958.6938651,-0.015748,0.042753,0.040518,9.287000,1.953000,0.089000
1631512958.7995579,-0.032374,-0.007643,0.047010,9.285000,1.915000,0.089000
1631512958.8956075,-0.027996,-0.040318,0.062253,9.328000,1.867000,0.146000
1631512959.0222631,-0.028548,-0.099205,0.058908,9.333000,1.785000,0.199000
1631512959.0917480,-0.009584,-0.120773,0.036267,9.375000,1.762000,0.179000
1631512959.1816823,-0.020664,-0.149927,0.012686,9.406000,1.795000,-0.005000
1631512959.2909927,-0.035778,-0.142159,0.000995,9.402000,1.768000,-0.203000
1631512959.4110234,-0.025508,-0.096103,-0.004449,9.497000,1.703000,-0.318000
1631512959.4989450,-0.006528,-0.011792,-0.009871,9.536000,1.731000,-0.416000
1631512959.5929711,0.003125,0.120673,0.000363,9.461000,1.761000,-0.382000
1631512959.6967638,-0.024265,0.114938,-0.016413,9.405000,1.776000,-0.264000
1631512959.8208988,-0.072495,-0.004453,-0.029205,9.365000,1.761000,-0.098000
1631512959.9077480,-0.050483,-0.083952,-0.003356,9.392000,1.717000,-0.050000
1631512960.0251794,0.057956,-0.100278,0.059448,9.433000,1.689000,-0.205000
1631512960.1038384,0.106085,-0.096345,0.087753,9.439000,1.677000,-0.412000
1631512960.2374856,0.041866,-0.074304,0.096635,9.553000,1.624000,-0.545000
1631512960.4290688,0.029375,0.067670,0.077201,9.478000,1.405000,-0.559000
1631512960.4989967,0.021563,0.094924,0.061613,9.458000,1.377000,-0.468000
1631512960.5857539,0.025438,0.084131,0.032733,9.412000,1.302000,-0.365000
1631512960.7320101,0.060642,0.018960,0.010903,9.399000,1.262000,-0.241000
1631512960.8032372,0.068187,-0.008723,0.023648,9.413000,1.244000,-0.283000
1631512960.9035888,0.067387,-0.043214,0.068516,9.368000,1.234000,-0.287000
1631512961.0013101,0.046834,-0.088826,0.086469,9.386000,1.198000,-0.300000
1631512961.1162610,0.019911,-0.107061,0.105154,9.413000,1.093000,-0.411000
1631512961.2207801,0.006190,-0.123312,0.095934,9.483000,1.018000,-0.453000
1631512961.2925100,-0.065166,-0.089704,0.118823,9.505000,0.961000,-0.755000
1631512961.3875136,-0.113172,-0.048214,0.118521,9.469000,0.836000,-0.908000
1631512961.5275829,-0.081156,-0.004359,0.089693,9.521000,0.559000,-0.787000
1631512961.6139631,-0.073277,-0.044900,0.031971,9.413000,0.741000,-1.024000
1631512961.7006810,-0.101669,-0.142477,-0.045951,9.354000,0.553000,-0.960000
1631512961.8057806,-0.100342,-0.272098,-0.124472,9.430000,0.637000,-1.011000
1631512961.9127288,0.005457,-0.225661,-0.126691,9.538000,0.785000,-1.149000
1631512962.0045333,0.065415,-0.146832,-0.099117,9.522000,0.908000,-1.368000
1631512962.1229236,0.016385,-0.066373,-0.100275,9.499000,1.110000,-1.527000
1631512962.1878366,-0.048108,-0.015774,-0.087003,9.508000,1.156000,-1.528000
1631512962.3011401,-0.071295,0.071228,-0.061342,9.536000,1.124000,-1.402000
1631512962.4154077,-0.037852,0.123049,-0.007055,9.333000,1.202000,-1.411000
1631512962.5074940,-0.036321,0.060259,0.037444,9.304000,1.247000,-1.355000
1631512962.6041257,-0.015948,-0.016868,0.055822,9.244000,1.202000,-1.435000
1631512962.7173512,-0.003008,-0.116272,0.059507,9.278000,1.168000,-1.529000
1631512962.8029211,-0.005544,-0.184852,0.051300,9.337000,1.124000,-1.710000
1631512962.9059389,-0.014924,-0.146842,0.066652,9.376000,1.044000,-1.813000
1631512962.9900928,-0.022126,-0.056438,0.076603,9.470000,0.989000,-1.917000
1631512963.1239326,0.014846,0.117502,0.074789,9.483000,0.855000,-1.756000
1631512963.2062128,0.043150,0.193794,0.063398,9.481000,0.816000,-1.615000
1631512963.2926018,0.024888,0.205552,0.048361,9.309000,0.856000,-1.617000
1631512963.4008083,-0.043340,0.082813,0.007021,9.289000,0.781000,-1.402000
1631512963.5173295,-0.019594,0.011127,-0.022856,9.400000,0.709000,-1.237000
1631512963.6055441,0.021640,0.003247,-0.031291,9.449000,0.736000,-1.234000
1631512963.6880441,0.032931,-0.040207,-0.050881,9.405000,0.833000,-1.347000
1631512963.7948904,-0.007772,-0.106927,-0.075174,9.376000,0.933000,-1.441000
1631512963.9283233,-0.032404,-0.167952,-0.111406,9.404000,0.965000,-1.530000
1631512964.0109687,-0.006646,-0.149484,-0.119490,9.435000,1.087000,-1.671000
1631512964.0953293,0.002687,-0.110362,-0.115172,9.390000,1.219000,-1.851000
1631512964.2056856,-0.032260,-0.073651,-0.102455,9.380000,1.367000,-1.974000
1631512964.3105431,-0.135394,-0.079310,-0.115637,9.333000,1.448000,-1.980000
1631512964.4051838,-0.103763,-0.014021,-0.140221,9.568000,1.439000,-1.858000
1631512964.4968863,-0.011792,0.133759,-0.127273,9.409000,1.649000,-1.937000
1631512964.5916271,-0.035643,0.199979,-0.066637,9.329000,1.850000,-1.842000
1631512964.7207320,-0.081351,0.167159,-0.011188,9.266000,1.814000,-1.439000
1631512964.7947280,-0.067429,0.082111,0.002630,9.284000,1.763000,-1.245000
1631512964.8964093,-0.045948,0.019786,0.017690,9.281000,1.770000,-1.208000
1631512964.9889193,-0.030984,-0.023032,0.036660,9.326000,1.765000,-1.229000
1631512965.1217666,-0.043944,-0.025517,0.076314,9.373000,1.726000,-1.284000
1631512965.1884100,-0.046666,-0.011719,0.086906,9.385000,1.675000,-1.309000
1631512965.3067942,-0.074809,0.027759,0.111731,9.409000,1.591000,-1.291000
1631512965.4014027,-0.091441,0.066642,0.105374,9.462000,1.386000,-1.162000
1631512965.5141933,-0.042030,0.102023,0.080108,9.446000,1.300000,-1.089000
1631512965.5992813,-0.029255,0.098614,0.078661,9.383000,1.347000,-1.136000
1631512965.6824632,-0.033432,0.075442,0.076589,9.425000,1.290000,-1.049000
1631512965.7965853,-0.031179,0.084401,0.092341,9.488000,1.183000,-0.954000
1631512965.9165637,-0.001228,0.187476,0.159691,9.479000,0.983000,-0.681000
1631512966.0051134,0.022729,0.211902,0.160729,9.461000,0.928000,-0.489000
1631512966.1011307,-0.001701,0.199295,0.128023,9.496000,0.848000,-0.347000
1631512966.2069542,-0.013280,0.190215,0.086749,9.480000,0.686000,-0.101000
1631512966.3234599,-0.020313,0.132788,0.049079,9.460000,0.568000,0.096000
1631512966.4082074,-0.013130,0.086840,0.012616,9.467000,0.554000,0.231000
1631512966.4989486,-0.034187,0.084862,-0.014544,9.526000,0.531000,0.303000
1631512966.6060224,-0.038529,0.117017,-0.024947,9.542000,0.603000,0.306000
1631512966.7255595,-0.083500,0.079571,-0.038377,9.423000,0.682000,0.374000
1631512966.8054533,-0.126685,0.018110,-0.064110,9.452000,0.733000,0.456000
1631512966.8952765,-0.117032,0.004820,-0.088849,9.508000,0.747000,0.645000
1631512966.9973898,-0.115770,0.022731,-0.090377,9.512000,0.921000,0.489000
1631512967.1004047,-0.172122,0.025013,-0.056854,9.447000,0.967000,0.490000
1631512967.2157784,-0.159319,-0.003961,-0.045767,9.450000,0.975000,0.603000
1631512967.2957568,-0.145743,-0.041931,-0.037566,9.385000,1.004000,0.518000
1631512967.4151294,-0.121614,-0.140583,-0.046829,9.510000,0.942000,0.582000
1631512967.5142365,-0.019241,-0.143767,-0.041594,9.552000,0.957000,0.445000
1631512967.5887823,0.008956,-0.134506,-0.039841,9.547000,1.070000,0.295000
1631512967.7072423,-0.032832,-0.044963,0.011866,9.628000,1.147000,0.159000
1631512967.8035064,-0.116447,0.040227,0.065337,9.601000,1.087000,0.204000
1631512967.9190438,-0.140130,0.108258,0.078820,9.595000,0.944000,0.341000
1631512968.0017993,-0.163622,0.146703,0.094429,9.519000,0.899000,0.335000
1631512968.1051090,-0.286166,0.136442,0.142447,9.519000,0.729000,0.509000
1631512968.1968088,-0.266545,0.141755,0.145835,9.462000,0.568000,0.609000
1631512968.3177085,-0.193080,-0.000684,0.037242,9.450000,0.454000,0.697000
1631512968.4037366,-0.149240,-0.030627,-0.010710,9.546000,0.446000,0.772000
1631512968.5155375,-0.159047,-0.006940,-0.024697,9.533000,0.477000,0.717000
1631512968.5956662,-0.156586,-0.006749,-0.046569,9.535000,0.483000,0.696000
1631512968.7290783,-0.202288,-0.037267,-0.050034,9.530000,0.494000,0.683000
1631512968.8190827,-0.217563,-0.045938,-0.036332,9.498000,0.563000,0.594000
1631512968.8986485,-0.221690,-0.058040,-0.013803,9.450000,0.559000,0.480000
1631512969.0162811,-0.145575,-0.148013,-0.003850,9.445000,0.450000,0.490000
1631512969.1005282,-0.037241,-0.204558,-0.031362,9.522000,0.504000,0.369000
1631512969.2053790,0.018884,-0.158179,-0.016510,9.647000,0.558000,0.210000
1631512969.2951274,0.013070,-0.073708,0.012771,9.603000,0.621000,0.019000
1631512969.4132931,-0.021765,-0.020590,-0.003360,9.593000,0.641000,-0.082000
1631512969.5063455,-0.018796,0.023391,-0.042336,9.600000,0.626000,-0.006000
1631512969.5908685,-0.014194,0.076111,-0.058486,9.633000,0.698000,0.088000
1631512969.6961470,-0.016699,0.118646,-0.090738,9.547000,0.775000,0.138000
1631512969.7929454,-0.055779,0.135178,-0.100706,9.505000,0.940000,0.304000
1631512969.9238386,-0.120668,0.116989,-0.073065,9.471000,1.014000,0.571000
1631512969.9946311,-0.140157,0.070970,-0.062047,9.435000,1.007000,0.679000
1631512970.1066120,-0.124006,0.023711,-0.060848,9.480000,1.049000,0.707000
1631512970.2078214,-0.109415,0.023910,-0.048703,9.518000,1.088000,0.776000
1631512970.3083475,-0.111943,0.050296,-0.023418,9.512000,1.123000,0.766000
1631512970.3978157,-0.124940,0.024476,-0.011961,9.416000,1.203000,0.742000
1631512970.5052147,-0.147413,-0.035775,-0.014328,9.428000,1.208000,0.712000
1631512970.5890048,-0.149199,-0.080217,-0.012870,9.435000,1.159000,0.769000
1631512970.7308311,-0.056989,-0.127073,-0.022898,9.471000,1.105000,0.656000
1631512970.8888695,-0.065244,-0.153177,-0.010481,9.568000,1.193000,0.278000
1631512970.9957612,-0.077491,-0.065552,0.024577,9.629000,1.100000,0.304000
1631512971.0924716,-0.098202,0.025377,0.056306,9.640000,1.054000,0.360000
1631512971.2199209,-0.151648,0.044655,0.070724,9.551000,1.005000,0.310000
1631512971.3037500,-0.200729,0.008667,0.067311,9.452000,0.878000,0.423000
1631512971.4063921,-0.180458,-0.050176,0.034306,9.467000,0.791000,0.519000
1631512971.4890745,-0.143377,-0.072806,0.018691,9.524000,0.734000,0.462000
1631512971.6282303,-0.080771,-0.038425,0.022117,9.543000,0.760000,0.413000
1631512971.6932223,-0.086334,-0.033093,0.026712,9.489000,0.823000,0.303000
1631512971.8048782,-0.140818,-0.035609,0.039463,9.500000,0.831000,0.155000
1631512971.8932383,-0.162492,-0.026683,0.042211,9.539000,0.725000,0.143000
1631512972.0181601,-0.116441,0.051706,0.083287,9.533000,0.610000,0.185000
1631512972.0968809,-0.101415,0.056486,0.097219,9.486000,0.594000,0.219000
1631512972.1895280,-0.098436,0.021875,0.093361,9.461000,0.488000,0.304000
1631512972.2956240,-0.108977,0.011304,0.098315,9.533000,0.366000,0.441000
1631512972.4195004,-0.104045,0.071428,0.116261,9.635000,0.220000,0.461000
1631512972.5032744,-0.091212,0.120866,0.124127,9.612000,0.115000,0.561000
1631512972.5869493,-0.082119,0.156978,0.103699,9.578000,-0.001000,0.674000
1631512972.7059889,-0.092271,0.113884,0.030108,9.516000,-0.059000,0.836000
1631512972.7985077,-0.110768,0.076296,-0.008809,9.480000,-0.083000,0.917000
1631512972.9054780,-0.104079,0.012225,-0.066981,9.461000,-0.015000,0.873000
1631512973.0000186,-0.089258,-0.028516,-0.107534,9.481000,0.028000,0.868000
1631512973.1046615,-0.087043,-0.069960,-0.123344,9.467000,0.199000,0.697000
1631512973.2118270,-0.046414,-0.077745,-0.126392,9.536000,0.234000,0.780000
1631512973.2960606,-0.013293,-0.038236,-0.110313,9.556000,0.393000,0.703000
1631512973.4005098,-0.049180,0.010061,-0.087458,9.553000,0.593000,0.596000
1631512973.4934735,-0.110576,0.051649,-0.067320,9.527000,0.634000,0.657000
1631512973.6094792,-0.119587,0.094223,-0.058059,9.534000,0.621000,0.824000
1631512973.6865759,-0.094834,0.102579,-0.067146,9.496000,0.702000,0.879000
1631512973.7906010,-0.089958,0.073137,-0.092349,9.433000,0.788000,0.922000
1631512973.9000025,-0.077128,0.033475,-0.123374,9.456000,0.898000,1.044000
1631512974.0064719,-0.052289,0.018007,-0.126780,9.431000,0.964000,1.111000
1631512974.0984676,-0.024596,-0.017182,-0.111810,9.436000,1.052000,1.204000
1631512974.1858881,-0.030906,-0.022292,-0.085213,9.416000,1.222000,1.080000
1631512974.2981060,-0.057058,0.029030,-0.026238,9.516000,1.190000,1.168000
1631512974.4294934,-0.085378,0.049173,0.031112,9.396000,1.267000,1.098000
1631512974.5107648,-0.079483,0.028242,0.033356,9.377000,1.196000,1.176000
1631512974.5992408,-0.060036,-0.012220,0.021176,9.419000,1.142000,1.238000
1631512974.6957459,-0.049375,-0.041968,0.020488,9.424000,1.141000,1.202000
1631512974.8249931,-0.042578,-0.052168,0.045049,9.396000,1.121000,1.123000
1631512974.8948963,-0.068145,-0.078138,0.053421,9.426000,1.070000,1.026000
1631512974.9929693,-0.095623,-0.080860,0.068830,9.577000,0.954000,1.070000
1631512975.1062810,-0.089530,-0.019306,0.110230,9.521000,0.794000,1.075000
1631512975.1939340,-0.093915,-0.029481,0.109818,9.460000,0.737000,0.972000
1631512975.3055549,-0.107332,-0.119394,0.057925,9.463000,0.620000,0.867000
1631512975.3861198,-0.083271,-0.174917,0.024606,9.483000,0.509000,0.843000
1631512975.5048876,-0.030758,-0.191585,-0.010363,9.594000,0.542000,0.552000
1631512975.6059613,-0.028899,-0.174899,-0.047409,9.620000,0.614000,0.303000
1631512975.7254350,-0.061212,-0.120412,-0.048386,9.610000,0.669000,0.127000
1631512975.7960250,-0.074776,-0.070877,-0.041170,9.642000,0.661000,0.169000
1631512975.8931599,-0.068299,0.001897,-0.049973,9.618000,0.686000,0.107000
1631512976.0191765,-0.097771,0.025002,-0.044091,9.501000,0.797000,0.068000
1631512976.1150999,-0.085804,-0.032477,-0.088857,9.475000,0.811000,0.135000
1631512976.1988685,-0.047805,-0.045349,-0.113658,9.564000,0.857000,0.156000
1631512976.2936220,0.008286,0.002313,-0.107206,9.603000,0.976000,0.165000
1631512976.4295523,0.039693,0.044320,-0.109472,9.461000,1.270000,0.068000
1631512976.5083768,-0.033330,0.006549,-0.121050,9.418000,1.436000,0.043000
1631512976.6054044,-0.117800,-0.017950,-0.115251,9.484000,1.424000,0.143000
1631512976.6948836,-0.110838,0.015421,-0.108828,9.531000,1.475000,0.241000
1631512976.8180835,-0.082934,0.080263,-0.093244,9.533000,1.594000,0.378000
1631512976.8966272,-0.081774,0.100517,-0.072935,9.438000,1.686000,0.368000
1631512976.9921319,-0.076728,0.072391,-0.062944,9.437000,1.695000,0.447000
1631512977.0957122,-0.045422,0.010556,-0.042338,9.357000,1.760000,0.529000
1631512977.2157683,-0.017850,-0.045118,0.013110,9.357000,1.801000,0.574000
1631512977.2994514,-0.055515,-0.034741,0.102477,9.367000,1.879000,0.383000
1631512977.4146662,-0.152453,-0.032767,0.180530,9.433000,1.720000,0.300000
1631512977.4952376,-0.205746,0.006959,0.241618,9.499000,1.480000,0.355000
1631512977.6276000,-0.247894,0.027724,0.256717,9.459000,1.119000,0.481000
1631512977.7058709,-0.242290,0.023760,0.225811,9.514000,0.892000,0.497000
1631512977.7894027,-0.225356,0.017560,0.181529,9.512000,0.678000,0.587000
1631512977.9052167,-0.178457,-0.014129,0.120410,9.441000,0.486000,0.667000
1631512978.0142663,-0.140037,-0.072483,0.055820,9.519000,0.449000,0.538000
1631512978.1167033,-0.137678,-0.084163,0.029185,9.562000,0.449000,0.434000
1631512978.1963494,-0.149391,-0.089610,0.006637,9.524000,0.435000,0.313000
1631512978.3157768,-0.171120,-0.095200,-0.033186,9.564000,0.426000,0.213000
1631512978.3954813,-0.159936,-0.079700,-0.055649,9.584000,0.429000,0.194000
1631512978.5122406,-0.126471,-0.042323,-0.079179,9.545000,0.496000,0.137000
1631512978.5947943,-0.112490,-0.057772,-0.107600,9.521000,0.604000,0.051000
1631512978.7230031,-0.106578,-0.056557,-0.125387,9.565000,0.751000,0.012000
1631512978.8087237,-0.112722,-0.013851,-0.107175,9.542000,0.846000,-0.023000
1631512978.9013984,-0.164747,0.031232,-0.054131,9.455000,0.998000,-0.132000
1631512978.9855993,-0.220118,-0.001611,-0.041258,9.436000,1.050000,-0.127000
1631512979.0857487,-0.268096,-0.086533,-0.053483,9.443000,0.995000,-0.034000
1631512979.2106814,-0.211281,-0.095748,-0.037842,9.598000,0.919000,0.114000
1631512979.2927542,-0.143659,-0.046884,-0.012437,9.581000,0.946000,0.036000
1631512979.3922503,-0.101439,-0.031151,0.006267,9.518000,1.105000,-0.104000
1631512979.4958973,-0.156240,-0.094580,0.011636,9.434000,1.191000,-0.279000
1631512979.6359766,-0.234265,-0.166824,0.000045,9.607000,1.014000,-0.245000
1631512979.7995312,-0.176842,0.003626,0.068390,9.543000,1.005000,-0.409000
1631512979.8945868,-0.140507,0.058459,0.081295,9.544000,1.017000,-0.422000
1631512979.9984963,-0.159248,0.083282,0.098656,9.500000,0.918000,-0.311000
1631512980.1168754,-0.186738,0.082186,0.108156,9.535000,0.801000,-0.156000
1631512980.2037892,-0.194752,0.071974,0.105038,9.468000,0.675000,-0.084000
1631512980.3053114,-0.225255,0.030751,0.099399,9.469000,0.580000,-0.050000
1631512980.3851104,-0.256356,-0.007560,0.093467,9.528000,0.458000,0.021000
1631512980.5116162,-0.277491,-0.002147,0.098296,9.551000,0.329000,-0.026000
1631512980.6059558,-0.310415,0.004041,0.093109,9.526000,0.284000,-0.020000
1631512980.6929145,-0.360435,-0.003422,0.077205,9.541000,0.185000,-0.074000
1631512980.7957323,-0.392747,0.019870,0.060365,9.600000,0.082000,-0.033000
1631512980.9257028,-0.365704,0.040750,0.003429,9.526000,-0.014000,0.044000
1631512981.0023787,-0.328439,0.027966,-0.033545,9.543000,0.045000,0.025000
1631512981.0897646,-0.277735,-0.010863,-0.059696,9.518000,0.087000,0.078000
1631512981.2029779,-0.209425,-0.052518,-0.078501,9.530000,0.101000,0.100000
1631512981.3071799,-0.128522,-0.060922,-0.080164,9.521000,0.246000,-0.029000
1631512981.4103196,-0.070882,-0.097153,-0.094394,9.483000,0.413000,-0.225000
1631512981.4896567,-0.070600,-0.099353,-0.088896,9.555000,0.474000,-0.218000
1631512981.6051731,-0.064269,-0.052107,-0.051678,9.590000,0.551000,-0.310000
1631512981.7001860,-0.061384,-0.053336,-0.023344,9.499000,0.580000,-0.347000
1631512981.8130023,-0.010088,-0.059464,-0.020190,9.539000,0.581000,-0.347000
1631512981.8970473,-0.011936,-0.062120,0.007887,9.542000,0.642000,-0.419000
1631512981.9932165,-0.050068,-0.088779,0.032092,9.507000,0.589000,-0.539000
1631512982.1311953,-0.061668,-0.099303,0.031324,9.534000,0.534000,-0.579000
1631512982.1915686,-0.061804,-0.085915,0.030232,9.581000,0.463000,-0.581000
1631512982.2990768,-0.051883,-0.052336,0.030502,9.576000,0.520000,-0.672000
1631512982.3934929,-0.094729,-0.045419,0.016778,9.493000,0.613000,-0.897000
1631512982.5162988,-0.159135,-0.037596,0.009706,9.557000,0.599000,-0.864000
1631512982.6032395,-0.169321,-0.001484,-0.001656,9.554000,0.437000,-0.707000
1631512982.7058895,-0.086914,0.025146,-0.019204,9.541000,0.398000,-0.653000
1631512982.7900641,0.019031,0.004586,-0.055981,9.464000,0.452000,-0.670000
1631512982.9055316,0.067215,-0.093873,-0.129728,9.455000,0.700000,-0.847000
1631512982.9990396,0.015423,-0.108386,-0.133397,9.549000,0.855000,-0.946000
1631512983.0954275,-0.026704,-0.056633,-0.105386,9.562000,0.992000,-1.047000
1631512983.1960895,-0.061625,0.017927,-0.062984,9.552000,1.021000,-0.971000
1631512983.3156123,-0.069122,0.076755,-0.001894,9.508000,0.979000,-0.871000
1631512983.4107707,-0.055809,0.003699,-0.000292,9.412000,1.003000,-0.859000
1631512983.5149381,-0.075656,-0.079463,0.007263,9.402000,1.017000,-0.896000
1631512983.6031797,-0.111692,-0.139863,0.028927,9.421000,1.014000,-0.999000
1631512983.7013040,-0.107077,-0.138357,0.053885,9.492000,0.910000,-1.120000
1631512983.7824004,-0.075431,-0.113757,0.078019,9.440000,0.885000,-1.306000
1631512983.8872018,-0.095691,-0.095097,0.110218,9.409000,0.902000,-1.494000
1631512984.0133789,-0.091502,-0.074880,0.106407,9.465000,0.670000,-1.528000
1631512984.1239357,-0.053700,-0.028109,0.101249,9.464000,0.636000,-1.625000
1631512984.2085924,-0.012157,0.008408,0.085851,9.474000,0.552000,-1.611000
1631512984.3145406,0.030630,-0.000926,0.031411,9.389000,0.473000,-1.597000
1631512984.3963358,0.077461,-0.031143,-0.026611,9.366000,0.465000,-1.594000
1631512984.5310421,0.135942,-0.096705,-0.123266,9.374000,0.608000,-1.683000
1631512984.5943496,0.096781,-0.112285,-0.158670,9.410000,0.881000,-1.934000
1631512984.6949334,0.053106,0.010461,-0.091217,9.495000,0.778000,-1.612000
1631512984.8146479,0.046488,0.111109,-0.017445,9.398000,0.822000,-1.550000
1631512984.9259267,0.047982,0.089338,-0.020919,9.321000,0.814000,-1.362000
1631512984.9950945,0.017414,0.047652,-0.014335,9.310000,0.889000,-1.346000
1631512985.1058497,-0.062437,-0.026788,-0.018958,9.326000,0.950000,-1.365000
1631512985.1962380,-0.112964,-0.072618,-0.029383,9.306000,0.993000,-1.469000
1631512985.3056114,-0.154537,-0.066499,-0.009869,9.379000,0.983000,-1.534000
1631512985.3947120,-0.168924,-0.039096,0.036320,9.370000,0.927000,-1.496000
1631512985.5186603,-0.138510,-0.036806,0.058035,9.356000,0.862000,-1.530000
1631512985.5962620,-0.141381,-0.049493,0.055496,9.323000,0.909000,-1.619000
1631512985.7225070,-0.194438,-0.042507,0.069349,9.440000,0.830000,-1.662000
1631512985.8079500,-0.211610,0.005682,0.106536,9.408000,0.779000,-1.728000
1631512985.8922212,-0.238384,-0.003276,0.126527,9.342000,0.776000,-1.763000
1631512985.9947751,-0.285226,-0.046445,0.137196,9.358000,0.674000,-1.792000
1631512986.1195364,-0.312104,-0.080854,0.129880,9.410000,0.577000,-1.917000
1631512986.2062371,-0.285056,-0.098767,0.106049,9.352000,0.491000,-1.964000
1631512986.2943327,-0.150376,-0.100517,0.029066,9.388000,0.495000,-2.051000
1631512986.4061732,-0.081591,-0.033654,-0.006911,9.367000,0.660000,-2.163000
1631512986.4959981,-0.117783,-0.073199,-0.069381,9.266000,0.731000,-2.085000
1631512986.6052315,-0.111424,-0.074169,-0.126016,9.374000,0.774000,-2.013000
1631512986.6943660,-0.086561,-0.003835,-0.142855,9.349000,0.920000,-2.074000
1631512986.7867901,-0.141352,0.026922,-0.126214,9.317000,1.067000,-2.100000
1631512986.9159865,-0.218359,0.067634,-0.060290,9.326000,1.283000,-2.109000
1631512986.9941137,-0.300913,0.113116,0.058507,9.293000,1.260000,-1.956000
1631512987.1023612,-0.355539,0.109599,0.159996,9.262000,1.164000,-1.798000
1631512987.1957674,-0.322852,0.102775,0.201548,9.291000,1.032000,-1.579000
1631512987.2994461,-0.287705,0.043261,0.202739,9.272000,0.912000,-1.472000
1631512987.3930664,-0.300780,-0.059246,0.173676,9.243000,0.793000,-1.468000
1631512987.5060489,-0.309999,-0.189011,0.107353,9.357000,0.654000,-1.553000
1631512987.5980525,-0.304727,-0.154515,0.103055,9.381000,0.659000,-1.861000
1631512987.7068660,-0.308795,-0.118425,0.091792,9.379000,0.593000,-1.952000
1631512987.7977316,-0.307293,-0.092882,0.085491,9.315000,0.589000,-2.004000
1631512987.9047484,-0.306320,-0.056050,0.093085,9.356000,0.603000,-2.116000
1631512988.0025675,-0.299519,-0.021555,0.100186,9.265000,0.519000,-2.123000
1631512988.0979476,-0.279330,-0.017659,0.091531,9.306000,0.483000,-2.076000
1631512988.2026587,-0.280187,-0.059520,0.064976,9.177000,0.447000,-2.074000
1631512988.2881835,-0.330693,-0.203248,0.018068,9.244000,0.393000,-2.124000
1631512988.3988717,-0.284881,-0.191740,0.024617,9.309000,0.485000,-2.414000
1631512988.5177402,-0.292314,-0.157424,0.062188,9.153000,0.611000,-2.658000
1631512988.5943239,-0.350895,-0.237030,0.041337,9.144000,0.558000,-2.782000
1631512988.6867123,-0.318303,-0.233603,0.018396,9.178000,0.513000,-2.890000
1631512988.7825880,-0.248946,-0.148713,0.035163,9.056000,0.705000,-3.156000
1631512988.9005132,-0.250567,-0.144248,0.049045,8.998000,0.671000,-3.142000
1631512989.0094783,-0.215309,-0.156692,0.021722,8.950000,0.841000,-3.407000
1631512989.0851448,-0.250417,-0.208236,0.010451,8.849000,0.894000,-3.486000
1631512989.2042806,-0.281521,-0.273994,0.016052,8.801000,0.879000,-3.682000
1631512989.3138611,-0.233985,-0.232041,0.034309,8.814000,0.921000,-3.865000
1631512989.4156582,-0.223219,-0.134836,0.087998,8.762000,0.986000,-4.032000
1631512989.4954879,-0.233593,-0.062550,0.128065,8.736000,1.016000,-4.073000
1631512989.5937362,-0.224042,-0.017243,0.146188,8.646000,0.952000,-3.965000
1631512989.7159591,-0.204218,-0.043439,0.147236,8.590000,0.911000,-3.951000
1631512989.7883811,-0.246559,-0.080172,0.186397,8.440000,0.894000,-4.084000
1631512989.8914742,-0.291629,-0.192694,0.167899,8.376000,0.740000,-4.107000
1631512989.9988718,-0.184649,-0.267132,0.083919,8.367000,0.704000,-4.370000
1631512990.1132574,-0.134940,-0.242982,0.033443,8.379000,0.788000,-4.632000
1631512990.1976333,-0.126317,-0.125580,0.000925,8.453000,0.768000,-4.740000
1631512990.2861731,-0.096922,0.009568,-0.020043,8.348000,0.855000,-4.840000
1631512990.3853974,-0.086805,0.063742,-0.044005,8.271000,0.926000,-4.793000
1631512990.5162513,-0.062389,0.023315,-0.062278,8.175000,1.004000,-4.643000
1631512990.6072600,-0.033870,-0.075907,-0.072851,8.188000,1.097000,-4.662000
1631512990.6904802,-0.034798,-0.103904,-0.067241,8.260000,1.122000,-4.614000
1631512990.7956326,0.000575,-0.032838,-0.046360,8.263000,1.234000,-4.745000
1631512990.9151862,0.018420,0.133827,0.007767,8.365000,1.262000,-4.711000
1631512991.0059297,0.035422,0.224557,0.045343,8.403000,1.219000,-4.562000
1631512991.0875552,0.039141,0.216015,0.056380,8.400000,1.228000,-4.454000
1631512991.2063591,0.004016,0.080198,0.044479,8.362000,1.185000,-4.288000
1631512991.3072703,0.014011,-0.006052,0.023283,8.473000,1.117000,-4.197000
1631512991.4052792,0.067645,-0.012393,-0.009455,8.551000,1.162000,-4.271000
1631512991.4965959,0.070460,0.029931,-0.027187,8.569000,1.232000,-4.301000
1631512991.6052520,-0.016948,0.107881,-0.001343,8.602000,1.250000,-4.220000
1631512991.6971157,-0.086280,0.151856,0.013460,8.578000,1.257000,-4.088000
1631512991.8159261,-0.099553,0.139375,-0.005155,8.601000,1.285000,-3.959000
1631512991.8962634,-0.098635,0.072356,-0.023898,8.645000,1.306000,-3.839000
1631512991.9915533,-0.030496,0.047097,-0.034161,8.697000,1.307000,-3.786000
1631512992.1151865,-0.027664,-0.027122,-0.022172,8.677000,1.368000,-3.861000
1631512992.2144690,0.009062,-0.033458,-0.004567,8.742000,1.349000,-3.773000
1631512992.2942364,0.059840,0.001945,0.014408,8.747000,1.288000,-3.756000
1631512992.3975916,0.068349,0.051480,0.058628,8.758000,1.292000,-3.753000
1631512992.5079708,0.001833,0.073370,0.082742,8.775000,1.228000,-3.657000
1631512992.6017520,-0.029205,0.033161,0.058610,8.738000,1.097000,-3.573000
1631512992.7053955,-0.047124,-0.049023,0.026459,8.671000,1.110000,-3.609000
1631512992.7957025,-0.081899,-0.134000,0.014820,8.722000,1.076000,-3.728000
1631512992.9166622,-0.037158,-0.138761,-0.018873,8.722000,1.087000,-3.837000
1631512992.9962397,0.010740,-0.117868,-0.053886,8.713000,1.136000,-4.021000
1631512993.0953703,0.017305,-0.059017,-0.064677,8.607000,1.238000,-4.172000
1631512993.1953650,-0.027686,-0.036147,-0.055749,8.636000,1.302000,-4.218000
1631512993.3151586,-0.053767,-0.012259,-0.030544,8.548000,1.402000,-4.282000
1631512993.4103701,-0.094432,-0.095201,-0.031399,8.488000,1.394000,-4.259000
1631512993.4929969,-0.032593,-0.139846,-0.044527,8.420000,1.423000,-4.262000
1631512993.6026464,0.079708,-0.154888,-0.046286,8.403000,1.378000,-4.249000
1631512993.6988494,0.139839,-0.141282,-0.003154,8.290000,1.485000,-4.595000
1631512993.8105311,0.089121,-0.139217,0.033634,8.294000,1.434000,-4.706000
1631512993.8998170,0.089787,-0.055590,0.049584,8.278000,1.299000,-4.671000
1631512994.0047359,0.104026,-0.014823,0.031069,8.198000,1.306000,-4.726000
1631512994.1121635,0.027927,-0.044378,0.045634,8.068000,1.227000,-4.825000
1631512994.1874988,-0.027896,-0.132501,0.031964,8.009000,1.239000,-4.938000
1631512994.2959795,0.000986,-0.172151,-0.014352,8.046000,1.114000,-4.966000
1631512994.3994005,0.048819,-0.096299,-0.059360,8.061000,1.223000,-5.180000
1631512994.4993064,0.058722,-0.002583,-0.084375,8.117000,1.254000,-5.225000
1631512994.5930490,-0.008604,0.113247,-0.053941,8.077000,1.299000,-5.205000
1631512994.6944671,-0.045813,0.158194,-0.036629,8.112000,1.275000,-5.018000
1631512994.7906647,-0.069844,0.157199,-0.027265,8.139000,1.305000,-4.889000
1631512994.9078388,-0.038684,0.101520,-0.042194,8.213000,1.340000,-4.694000
1631512994.9907453,-0.007196,0.092504,-0.017124,8.227000,1.444000,-4.681000
1631512995.1054218,-0.013194,0.058847,0.023886,8.221000,1.404000,-4.567000
1631512995.1951039,-0.011018,0.016205,0.054910,8.268000,1.432000,-4.582000
1631512995.3219676,-0.029916,-0.015358,0.096661,8.289000,1.385000,-4.627000
1631512995.4022462,-0.051761,0.014443,0.135431,8.350000,1.244000,-4.612000
1631512995.4884305,-0.028185,0.057969,0.150933,8.387000,1.166000,-4.601000
1631512995.5957503,-0.013250,0.082627,0.154079,8.401000,1.062000,-4.514000
1631512995.7323434,0.004876,0.059815,0.130559,8.431000,0.809000,-4.335000
1631512995.8918777,0.094855,0.005499,0.048773,8.438000,0.719000,-4.363000
1631512996.0071156,-0.029426,-0.059380,0.049959,8.451000,0.651000,-4.486000
1631512996.0872984,-0.073869,-0.061974,0.053144,8.452000,0.635000,-4.464000
1631512996.2242899,-0.016745,-0.035799,-0.045399,8.481000,0.499000,-4.380000
1631512996.2941554,0.034231,-0.015814,-0.094176,8.470000,0.612000,-4.469000
1631512996.3832831,0.049866,-0.005231,-0.145940,8.457000,0.733000,-4.542000
1631512996.4941082,0.046140,0.025175,-0.156834,8.427000,0.846000,-4.546000
1631512996.6045556,0.030340,0.017212,-0.173340,8.449000,1.035000,-4.542000
1631512996.7092934,0.075072,0.027796,-0.196299,8.453000,1.101000,-4.388000
1631512996.7881100,0.110963,0.047764,-0.203209,8.461000,1.265000,-4.415000
1631512996.8953588,0.121087,0.076960,-0.181473,8.481000,1.391000,-4.392000
1631512997.0256391,0.093967,0.063303,-0.130779,8.429000,1.548000,-4.308000
1631512997.0947635,0.060918,0.030805,-0.113864,8.441000,1.644000,-4.310000
1631512997.1989417,0.014486,-0.004241,-0.062057,8.419000,1.680000,-4.189000
1631512997.3028064,-0.012731,-0.033617,-0.017548,8.420000,1.694000,-4.213000
1631512997.4001272,-0.026896,-0.080964,0.053839,8.378000,1.650000,-4.336000
1631512997.5053198,-0.025043,-0.115914,0.088679,8.322000,1.590000,-4.486000
1631512997.5948274,-0.015524,-0.089743,0.117582,8.365000,1.523000,-4.589000
1631512997.7047477,0.009494,-0.027946,0.121155,8.373000,1.335000,-4.611000
1631512997.7992332,0.031724,0.016837,0.099869,8.338000,1.278000,-4.684000
1631512997.9041514,0.020316,0.023709,0.087503,8.362000,1.113000,-4.549000
1631512997.9959750,0.055480,0.015192,0.054598,8.360000,1.135000,-4.581000
1631512998.0920627,0.035749,-0.017614,0.046603,8.317000,1.087000,-4.618000
1631512998.2209628,0.028755,-0.031296,0.067399,8.361000,0.965000,-4.556000
1631512998.2969098,0.076743,-0.006721,0.059271,8.334000,0.927000,-4.603000
1631512998.3944390,0.084471,0.033375,0.044867,8.350000,0.953000,-4.637000
1631512998.4894347,0.028762,0.049636,0.054087,8.382000,0.884000,-4.650000
1631512998.6129498,0.004270,0.058098,0.035310,8.366000,0.795000,-4.567000
1631512998.7007198,0.014906,0.048424,0.021382,8.435000,0.730000,-4.568000
1631512998.8052123,0.006403,0.060164,-0.002317,8.478000,0.713000,-4.547000
1631512998.8962722,-0.016489,0.063553,0.006220,8.472000,0.715000,-4.445000
1631512999.0100355,-0.006952,0.046492,0.032443,8.532000,0.636000,-4.347000
1631512999.1008949,0.044698,0.043511,0.033068,8.602000,0.597000,-4.221000
1631512999.1947527,0.065041,0.054761,0.042767,8.586000,0.642000,-4.253000
1631512999.2955339,0.020507,0.055706,0.075257,8.590000,0.635000,-4.260000
1631512999.4269345,-0.020109,0.078893,0.100795,8.644000,0.445000,-4.150000
1631512999.5071781,0.003926,0.096106,0.087209,8.643000,0.359000,-3.998000
1631512999.5940242,0.000295,0.081238,0.083018,8.650000,0.369000,-4.030000
1631512999.7029901,-0.075896,0.040541,0.101036,8.686000,0.236000,-3.967000
1631512999.8088913,-0.074448,0.054760,0.072520,8.731000,0.119000,-3.952000
1631512999.8795068,-0.064538,0.087653,0.006616,8.760000,0.104000,-3.903000
1631512999.9910970,-0.063167,0.102658,-0.041044,8.818000,0.199000,-3.903000
1631513000.1052132,-0.092973,0.077423,-0.089027,8.817000,0.291000,-3.788000
1631513000.1971698,-0.046671,0.030193,-0.126293,8.857000,0.380000,-3.559000
1631513000.2899246,-0.002965,0.010661,-0.126443,8.881000,0.519000,-3.582000
1631513000.4019117,-0.002767,0.031471,-0.093845,8.873000,0.675000,-3.610000
1631513000.4958193,-0.001903,0.070041,-0.060226,8.903000,0.747000,-3.565000
1631513000.6089149,0.004430,0.097175,-0.022382,8.895000,0.744000,-3.437000
1631513000.6954632,0.011154,0.088516,0.018191,8.884000,0.820000,-3.391000
1631513000.7946880,-0.021436,0.036395,0.064519,8.859000,0.766000,-3.315000
1631513000.8996544,-0.021079,-0.022605,0.073050,8.963000,0.682000,-3.280000
1631513001.0166397,0.023602,0.020081,0.053672,8.968000,0.624000,-3.313000
1631513001.1015155,0.002851,0.041949,0.039606,8.957000,0.629000,-3.336000
1631513001.1841092,-0.027483,0.061112,0.030467,8.991000,0.528000,-3.239000
1631513001.2920237,-0.028738,0.097188,0.026088,8.993000,0.519000,-3.197000
1631513001.4087152,-0.048300,0.074364,0.022553,8.994000,0.491000,-3.083000
1631513001.4982135,-0.016259,0.030800,-0.010449,9.033000,0.511000,-2.957000
1631513001.6039586,0.014965,-0.007531,-0.055679,9.075000,0.531000,-2.941000
1631513001.6971445,0.016059,-0.022229,-0.061582,9.001000,0.622000,-3.110000
1631513001.8260884,0.002390,-0.088600,-0.038732,9.051000,0.686000,-3.263000
1631513001.8951340,0.029331,-0.096859,-0.036151,9.024000,0.645000,-3.266000
1631513001.9925871,0.045312,-0.105575,-0.038979,8.971000,0.741000,-3.406000
1631513002.0944161,0.066225,-0.067182,-0.028101,9.023000,0.699000,-3.411000
1631513002.2141585,0.097841,-0.012888,-0.022588,8.975000,0.712000,-3.442000
1631513002.3061793,0.069127,0.002475,-0.012414,8.942000,0.740000,-3.486000
1631513002.3857381,0.040837,0.006466,-0.004938,8.945000,0.704000,-3.419000
1631513002.4968438,0.061351,0.008868,-0.011150,8.980000,0.612000,-3.351000
1631513002.6133432,0.107885,0.021452,-0.018497,8.959000,0.642000,-3.350000
1631513002.6863608,0.090518,-0.017678,-0.020457,8.910000,0.683000,-3.400000
1631513002.7894394,0.023962,-0.066959,-0.009107,8.857000,0.683000,-3.477000
1631513002.8851783,-0.024684,-0.117154,-0.008021,8.861000,0.647000,-3.550000
1631513003.0120370,-0.057765,-0.118870,-0.009005,8.845000,0.724000,-3.735000
1631513003.1160982,0.018264,-0.084681,-0.039324,8.863000,0.613000,-3.672000
1631513003.1774230,0.072634,-0.030840,-0.041411,8.846000,0.712000,-3.848000
1631513003.2991767,0.014596,-0.023594,-0.019209,8.768000,0.842000,-3.955000
1631513003.4260657,-0.029132,-0.062638,0.000026,8.670000,0.776000,-3.881000
1631513003.4951835,0.010862,-0.098544,0.000658,8.673000,0.707000,-3.882000
1631513003.6055508,0.038325,-0.106489,0.005927,8.604000,0.738000,-4.090000
1631513003.7024512,0.024570,-0.112174,0.008622,8.571000,0.738000,-4.179000
1631513003.8206909,0.058252,-0.098521,-0.012929,8.575000,0.705000,-4.236000
1631513003.9014897,0.064453,-0.043096,-0.002161,8.568000,0.680000,-4.310000
1631513003.9840829,0.070628,-0.020356,0.003569,8.551000,0.681000,-4.299000
1631513004.1001689,0.069314,0.023363,0.027757,8.596000,0.583000,-4.249000
1631513004.2279394,0.041579,0.010115,0.066542,8.542000,0.467000,-4.202000
1631513004.3191066,0.016595,-0.017214,0.081606,8.557000,0.451000,-4.107000
1631513004.3961961,0.015499,-0.020911,0.096401,8.532000,0.349000,-4.225000
1631513004.4947941,0.037528,-0.056998,0.088542,8.493000,0.293000,-4.246000
1631513004.6148188,0.030878,-0.101741,0.080901,8.520000,0.177000,-4.421000
1631513004.7051027,-0.018887,-0.081549,0.080498,8.522000,0.171000,-4.541000
1631513004.7897983,-0.037006,-0.021074,0.071483,8.521000,0.052000,-4.577000
1631513004.9054155,-0.021562,0.041588,0.100717,8.460000,-0.011000,-4.571000
1631513005.0375359,-0.027527,0.106904,0.089457,8.538000,-0.172000,-4.553000
1631513005.1989343,0.050138,0.133310,0.063816,8.588000,-0.219000,-4.266000
1631513005.2867682,-0.010846,0.110067,0.092649,8.584000,-0.215000,-4.138000
1631513005.3959284,-0.060620,0.155141,0.101088,8.658000,-0.311000,-4.021000
1631513005.5156610,-0.065607,0.137380,0.087496,8.676000,-0.394000,-3.868000
1631513005.6001155,-0.053598,0.098782,0.056338,8.725000,-0.376000,-3.717000
1631513005.6910374,-0.062859,0.053454,0.005665,8.715000,-0.494000,-3.799000
1631513005.7945676,-0.069477,-0.007335,-0.018744,8.721000,-0.465000,-3.875000
1631513005.9228034,-0.094899,-0.041351,-0.045613,8.771000,-0.453000,-4.007000
1631513006.0024099,-0.113900,-0.056686,-0.045246,8.755000,-0.323000,-4.028000
1631513006.0894957,-0.145433,-0.097937,-0.014818,8.653000,-0.232000,-4.003000
1631513006.2052832,-0.140838,-0.144309,0.049780,8.645000,-0.200000,-4.134000
1631513006.3019938,-0.103084,-0.173019,0.118005,8.655000,-0.237000,-4.310000
1631513006.3924649,-0.094107,-0.135080,0.157059,8.736000,-0.233000,-4.316000
1631513006.4859371,-0.096504,-0.029416,0.162070,8.691000,-0.361000,-4.358000
1631513006.6125541,-0.022116,0.038167,0.149373,8.577000,-0.563000,-4.372000
1631513006.7076457,0.049225,0.039870,0.150341,8.577000,-0.655000,-4.306000
1631513006.7993453,0.044966,0.080517,0.146222,8.626000,-0.765000,-4.298000
1631513006.8948069,0.001835,0.134230,0.127713,8.645000,-0.833000,-4.134000
1631513006.9900124,-0.081198,0.199782,0.075927,8.649000,-0.923000,-3.946000
1631513007.1130619,-0.153639,0.184985,-0.041652,8.551000,-0.944000,-3.792000
1631513007.1908751,-0.093704,0.020607,-0.082892,8.456000,-1.033000,-3.864000
1631513007.3056273,0.015736,-0.144933,-0.139731,8.576000,-0.812000,-3.855000
1631513007.4019332,0.021823,-0.167283,-0.186903,8.612000,-0.549000,-3.897000
1631513007.5281792,-0.002996,-0.134151,-0.183039,8.632000,-0.364000,-4.109000
1631513007.6008708,-0.024151,-0.092581,-0.153630,8.664000,-0.205000,-4.174000
1631513007.7047815,-0.056722,-0.072886,-0.099429,8.553000,-0.078000,-4.222000
1631513007.7986162,-0.075132,-0.058679,-0.031336,8.542000,-0.060000,-4.308000
1631513007.9040642,-0.052723,-0.029099,0.009605,8.532000,-0.085000,-4.405000
1631513007.9952860,-0.005479,0.004890,0.044227,8.582000,-0.064000,-4.399000
1631513008.0948977,0.024506,0.040613,0.070278,8.573000,-0.107000,-4.361000
1631513008.2053831,0.051603,0.037569,0.081784,8.560000,-0.170000,-4.257000
1631513008.3157485,0.064698,0.049190,0.063605,8.605000,-0.208000,-4.148000
1631513008.4095545,0.071744,0.085880,0.006501,8.624000,-0.294000,-4.106000
1631513008.4915905,0.053158,0.113936,-0.023017,8.692000,-0.295000,-4.061000
1631513008.5876122,0.007885,0.121635,-0.033882,8.675000,-0.278000,-3.919000
1631513008.6936510,-0.019940,0.067085,-0.000098,8.687000,-0.291000,-3.736000
1631513008.7949719,-0.027954,0.036587,0.010154,8.756000,-0.360000,-3.808000
1631513008.9041283,0.025164,0.042637,-0.004711,8.747000,-0.453000,-3.907000
1631513008.9826970,0.049091,0.053806,-0.010930,8.724000,-0.451000,-3.956000
1631513009.0923641,0.063262,0.064861,-0.016405,8.800000,-0.435000,-3.961000
1631513009.1963592,0.030173,0.091517,-0.031080,8.896000,-0.369000,-3.902000
1631513009.2950945,-0.000940,0.089728,-0.043045,8.857000,-0.396000,-3.750000
1631513009.3912053,-0.013821,0.026583,-0.016853,8.884000,-0.282000,-3.670000
1631513009.5169051,-0.042291,0.040958,0.006208,9.000000,-0.233000,-3.577000
1631513009.6139455,-0.067063,0.066548,0.012542,8.971000,-0.273000,-3.521000
1631513009.7023096,-0.090103,0.044235,0.033436,8.868000,-0.251000,-3.524000
1631513009.7977781,-0.088183,-0.005715,0.026496,8.930000,-0.231000,-3.453000
1631513009.9274848,-0.119485,0.034703,-0.050412,8.953000,-0.107000,-3.332000
1631513010.0020683,-0.144468,0.069267,-0.086253,8.986000,-0.034000,-3.287000
1631513010.1043396,-0.120120,0.072014,-0.091625,8.953000,-0.056000,-3.287000
1631513010.1995974,-0.033959,-0.000418,-0.059434,8.906000,0.026000,-3.341000
1631513010.3118467,0.023188,-0.057231,-0.029090,8.914000,0.123000,-3.300000
1631513010.4050140,0.014456,-0.083509,0.002633,8.921000,0.181000,-3.359000
1631513010.4940042,-0.013092,-0.089251,0.011635,8.870000,0.134000,-3.447000
1631513010.5947883,-0.024145,-0.082707,-0.006432,8.830000,0.137000,-3.462000
1631513010.7161028,-0.012388,-0.099308,-0.024018,8.803000,0.164000,-3.528000
1631513010.8062487,-0.008986,-0.133064,-0.004378,8.810000,0.155000,-3.719000
1631513010.8916130,-0.008310,-0.121282,-0.004426,8.806000,0.187000,-3.809000
1631513010.9857516,-0.011526,-0.069890,-0.022000,8.861000,0.234000,-3.894000
1631513011.1111419,-0.012773,0.039072,-0.060760,8.777000,0.235000,-3.959000
1631513011.2049265,0.020773,0.062652,-0.049059,8.743000,0.270000,-3.958000
1631513011.2993140,0.061965,0.038168,0.012832,8.770000,0.315000,-3.899000
1631513011.3883276,0.070479,0.029241,0.049789,8.810000,0.281000,-3.870000
1631513011.5238032,0.038203,0.021738,0.084503,8.773000,0.208000,-3.815000
1631513011.5931151,0.005102,0.005571,0.101273,8.841000,0.147000,-3.783000
1631513011.6953824,-0.047069,-0.021540,0.116710,8.824000,-0.010000,-3.871000
1631513011.7985311,-0.055445,0.014449,0.070209,8.855000,-0.052000,-3.870000
1631513011.9034443,-0.065995,0.069741,0.020821,8.836000,-0.087000,-3.780000
1631513011.9906907,-0.083709,0.058698,0.034083,8.826000,-0.087000,-3.742000
1631513012.1015875,-0.063483,-0.008338,0.084968,8.861000,-0.125000,-3.731000
1631513012.1874869,-0.083568,-0.025498,0.121589,8.896000,-0.138000,-3.712000
1631513012.3250179,-0.104933,0.047984,0.097133,8.937000,-0.272000,-3.695000
1631513012.3993361,-0.082591,0.080851,0.077208,8.908000,-0.367000,-3.705000
1631513012.4795978,-0.055174,0.100476,0.068694,8.932000,-0.362000,-3.619000
1631513012.5847189,-0.035186,0.105018,0.057790,8.962000,-0.382000,-3.484000
1631513012.7138140,-0.029665,0.078134,0.060241,9.011000,-0.401000,-3.235000
1631513012.8025827,-0.047810,0.035738,0.080963,9.013000,-0.471000,-3.266000
1631513012.8905821,-0.048465,0.021704,0.077871,9.045000,-0.561000,-3.333000
1631513012.9951079,-0.039877,0.035202,0.052207,9.073000,-0.622000,-3.300000
1631513013.1201189,-0.041315,0.101852,-0.030011,9.113000,-0.598000,-3.168000
1631513013.1994913,-0.033012,0.138072,-0.090676,9.090000,-0.536000,-3.080000
1631513013.2913065,-0.023425,0.160568,-0.153287,9.106000,-0.352000,-2.884000
1631513013.3974464,-0.032437,0.148837,-0.189727,9.074000,-0.225000,-2.818000
1631513013.5268383,-0.032944,0.103928,-0.233758,9.052000,0.022000,-2.683000
1631513013.6051226,-0.037874,0.029154,-0.217354,9.055000,0.179000,-2.604000
1631513013.7011452,-0.054822,-0.064728,-0.185229,9.105000,0.421000,-2.572000
1631513013.8052475,-0.074506,-0.091127,-0.190407,9.043000,0.604000,-2.612000
1631513013.9334016,-0.074007,-0.143394,-0.187825,8.962000,0.791000,-2.797000
1631513014.0129869,-0.060854,-0.161376,-0.177962,8.953000,1.085000,-2.878000
1631513014.0975966,-0.058154,-0.134137,-0.135128,9.007000,1.166000,-2.969000
1631513014.1913202,0.003872,-0.004576,-0.072358,9.008000,1.218000,-3.081000
1631513014.3159032,0.112797,0.042884,0.024785,8.867000,1.186000,-3.145000
1631513014.3897312,0.164720,-0.013205,0.109236,8.795000,1.093000,-3.224000
1631513014.4942732,0.160756,-0.087950,0.163350,8.827000,1.033000,-3.233000
1631513014.5874429,0.092434,-0.159968,0.185096,8.899000,0.909000,-3.339000
1631513014.7142396,-0.007932,-0.157876,0.195685,8.943000,0.698000,-3.540000
1631513014.8017414,-0.066543,-0.126965,0.207468,8.942000,0.458000,-3.687000
1631513014.9047771,-0.077142,-0.077560,0.196482,8.937000,0.304000,-3.698000
1631513014.9969125,-0.058085,0.001266,0.156682,8.959000,0.172000,-3.653000
1631513015.1042325,-0.047025,0.050790,0.134955,8.922000,0.055000,-3.658000
1631513015.1987550,-0.010634,0.046843,0.111660,8.887000,-0.055000,-3.640000
1631513015.2822695,0.007340,0.014467,0.101867,8.857000,-0.121000,-3.628000
1631513015.3952973,-0.009463,-0.010290,0.092204,8.891000,-0.231000,-3.681000
1631513015.5216699,-0.037744,-0.039138,0.066356,8.831000,-0.357000,-3.746000
1631513015.5945427,-0.035814,-0.061953,0.056880,8.874000,-0.408000,-3.761000
1631513015.6898582,-0.010174,-0.059028,0.019812,8.893000,-0.444000,-3.830000
1631513015.7938201,-0.006474,-0.032727,-0.003050,8.866000,-0.423000,-3.810000
1631513015.9223459,-0.019796,0.013571,-0.024046,8.904000,-0.343000,-3.831000
1631513015.9909294,-0.005808,0.034471,-0.025545,8.908000,-0.272000,-3.750000
1631513016.0983658,0.050182,0.087485,-0.049523,8.974000,-0.181000,-3.644000
1631513016.1838863,0.052980,0.134961,-0.051336,8.971000,-0.165000,-3.626000
1631513016.2990928,0.020328,0.143914,-0.032330,8.922000,-0.236000,-3.569000
1631513016.4038785,0.032141,0.074958,-0.011657,8.849000,-0.321000,-3.482000
1631513016.4898462,0.003509,0.019607,0.013436,8.903000,-0.217000,-3.398000
1631513016.5966923,-0.047159,0.017963,-0.014292,8.914000,-0.234000,-3.388000
1631513016.7335942,-0.099789,0.014137,-0.037414,8.925000,-0.159000,-3.345000
1631513016.8978355,-0.103060,0.024918,-0.065004,8.973000,-0.009000,-3.212000
1631513016.9934177,-0.102369,0.000564,-0.034626,8.988000,0.052000,-3.205000
1631513017.0936565,-0.101192,-0.009148,-0.004735,9.011000,0.105000,-3.235000
1631513017.2084625,-0.117615,0.004686,0.024466,9.017000,0.086000,-3.282000
1631513017.3050363,-0.130157,0.045961,0.020194,9.044000,0.037000,-3.258000
1631513017.3854401,-0.115883,0.060328,0.009213,8.995000,0.058000,-3.200000
1631513017.5042884,-0.101633,0.039141,0.014201,8.999000,0.116000,-3.041000
1631513017.5961862,-0.085735,-0.031810,0.080471,9.009000,0.140000,-3.020000
1631513017.7035911,-0.039932,-0.100737,0.148263,9.030000,0.015000,-3.163000
1631513017.7974195,-0.012712,-0.093698,0.160943,9.083000,-0.056000,-3.242000
1631513017.8946104,-0.026238,-0.015967,0.127042,9.105000,-0.170000,-3.326000
1631513018.0120618,-0.055833,0.055028,0.080184,9.032000,-0.260000,-3.332000
1631513018.0935874,-0.089332,0.106904,0.031480,9.056000,-0.304000,-3.259000
1631513018.1941519,-0.091472,0.125765,-0.026452,9.010000,-0.346000,-3.152000
1631513018.3137481,-0.044343,0.060472,-0.074180,8.993000,-0.257000,-3.004000
1631513018.4021606,-0.021918,-0.000496,-0.079227,9.014000,-0.143000,-2.952000
1631513018.5054710,-0.025475,-0.080270,-0.049358,9.055000,0.040000,-2.928000
1631513018.6051662,-0.028738,-0.116782,-0.011547,9.071000,0.049000,-3.098000
1631513018.6961381,0.001663,-0.111944,0.020964,9.114000,0.065000,-3.221000
1631513018.8164175,-0.011564,-0.030623,0.033211,9.036000,0.021000,-3.251000
1631513018.9236395,-0.002964,-0.046222,0.041431,8.971000,-0.097000,-3.242000
1631513018.9868031,0.021127,-0.070036,0.022133,8.854000,-0.134000,-3.324000
1631513019.0958424,0.055104,-0.131326,0.013212,8.838000,-0.195000,-3.537000
1631513019.1908956,0.082674,-0.096304,-0.006450,8.930000,-0.185000,-3.704000
1631513019.3132908,0.080255,0.093774,-0.068409,9.029000,-0.180000,-3.772000
1631513019.3908951,0.043559,0.217391,-0.102187,9.012000,-0.093000,-3.634000
1631513019.4988053,0.047569,0.247632,-0.121270,8.885000,-0.044000,-3.405000
1631513019.6319425,0.061588,0.139481,-0.078087,8.949000,0.122000,-3.067000
1631513019.7053828,0.018157,0.057071,-0.065237,8.962000,0.180000,-2.933000
1631513019.8019423,0.002014,-0.024492,-0.120216,8.891000,0.229000,-2.910000
1631513019.9046960,-0.027397,-0.112886,-0.133324,8.824000,0.396000,-2.925000
1631513020.0182683,-0.099396,-0.188197,-0.073850,8.835000,0.509000,-3.109000
1631513020.1040599,-0.103172,-0.223843,0.021228,8.999000,0.497000,-3.500000
1631513020.2016253,-0.028250,-0.141645,0.052948,9.005000,0.490000,-3.623000
1631513020.2919874,0.019697,-0.080533,0.089435,9.001000,0.527000,-3.662000
1631513020.4050558,-0.035067,0.005499,0.154395,8.938000,0.424000,-3.628000
1631513020.5008962,-0.062499,0.047609,0.173781,8.901000,0.222000,-3.681000
1631513020.5944197,-0.065135,0.122488,0.117648,8.923000,0.001000,-3.682000
1631513020.6897888,-0.068337,0.171416,-0.013593,8.869000,-0.057000,-3.465000
1631513020.8093948,-0.070804,0.125385,-0.165857,8.652000,0.018000,-3.139000
1631513020.9042645,-0.023252,-0.049980,-0.166220,8.679000,0.210000,-3.017000
1631513021.0051386,0.013346,-0.160899,-0.147112,8.754000,0.366000,-3.100000
1631513021.1067686,0.075282,-0.207865,-0.123260,8.798000,0.550000,-3.210000
1631513021.2307718,0.099178,-0.177342,-0.028903,8.914000,0.686000,-3.456000
1631513021.2996414,0.097681,-0.080621,0.071877,8.969000,0.619000,-3.795000
1631513021.4036460,0.078859,0.027626,0.128096,8.927000,0.503000,-3.850000
1631513021.4956479,0.061092,0.070035,0.158161,8.851000,0.297000,-3.846000
1631513021.6168816,0.043490,0.068659,0.177706,8.844000,0.068000,-3.808000
1631513021.7095461,0.038937,0.066552,0.166659,8.859000,-0.082000,-3.732000
1631513021.7900360,0.026820,0.072389,0.156841,8.931000,-0.186000,-3.616000
1631513021.8941135,0.004654,0.074563,0.137405,8.918000,-0.318000,-3.526000
1631513022.0138378,0.033260,0.036772,0.100386,8.920000,-0.533000,-3.475000
1631513022.1019764,0.061445,-0.008783,0.096531,8.938000,-0.567000,-3.437000
1631513022.1880236,0.060783,-0.009301,0.071026,9.006000,-0.614000,-3.460000
1631513022.3055813,0.052583,0.024778,-0.004515,8.966000,-0.720000,-3.489000
1631513022.3997560,0.037640,0.040009,-0.053612,8.982000,-0.721000,-3.475000
1631513022.5054102,0.034134,0.032373,-0.083501,8.945000,-0.633000,-3.445000
1631513022.5837924,0.026115,0.015710,-0.098999,8.945000,-0.548000,-3.396000
1631513022.7082963,0.006869,-0.016921,-0.112330,8.976000,-0.455000,-3.379000
1631513022.8038509,-0.002107,-0.024946,-0.134357,8.917000,-0.327000,-3.439000
1631513022.9066694,0.010657,-0.025257,-0.144002,8.939000,-0.241000,-3.475000
1631513023.0034707,0.027672,-0.032760,-0.126892,8.970000,-0.075000,-3.463000
1631513023.0927472,0.031310,-0.023765,-0.105167,8.943000,0.030000,-3.537000
1631513023.2502382,0.005347,-0.005342,-0.078136,8.862000,0.142000,-3.596000
1631513023.4156535,-0.062390,-0.015104,-0.018591,8.876000,0.215000,-3.539000
1631513023.5249369,-0.085382,0.011472,-0.016915,8.892000,0.273000,-3.515000
1631513023.6046889,-0.075899,0.041292,-0.021667,8.937000,0.255000,-3.495000
1631513023.7241738,0.000972,0.076708,-0.021492,8.999000,0.344000,-3.345000
1631513023.8037686,0.068455,0.110171,-0.028253,8.968000,0.334000,-3.287000
1631513023.8984914,0.103158,0.155945,-0.031410,8.995000,0.331000,-3.201000
1631513023.9949524,0.114356,0.126033,-0.031620,8.878000,0.261000,-3.087000
1631513024.1153650,0.115915,-0.024061,0.002344,8.873000,0.277000,-3.031000
1631513024.1942964,0.075598,-0.087658,0.005273,8.918000,0.287000,-3.072000
1631513024.2987945,-0.002386,-0.090087,-0.048464,8.926000,0.327000,-3.130000
1631513024.3929236,-0.057406,-0.067155,-0.104868,8.936000,0.387000,-3.221000
1631513024.5119238,-0.047178,-0.022226,-0.118135,9.020000,0.538000,-3.284000
1631513024.6037257,-0.041921,0.048037,-0.100667,9.076000,0.633000,-3.362000
1631513024.7049456,-0.011340,0.104945,-0.069228,9.103000,0.641000,-3.400000
1631513024.8031490,0.019475,0.116184,-0.022287,9.001000,0.657000,-3.337000
1631513024.9239161,0.014119,0.017836,0.097195,8.993000,0.605000,-3.239000
1631513024.9992769,-0.004329,-0.068323,0.184652,9.006000,0.462000,-3.243000
1631513025.1036553,-0.025058,-0.109712,0.237973,9.061000,0.353000,-3.238000
1631513025.2020433,-0.066198,-0.080043,0.191148,9.061000,0.126000,-3.316000
1631513025.3256130,-0.079833,-0.058469,0.063254,8.921000,0.006000,-3.293000
1631513025.3953652,-0.068917,-0.085072,0.037209,8.887000,-0.002000,-3.283000
1631513025.4921217,-0.013225,-0.185663,0.064570,8.874000,-0.069000,-3.510000
1631513025.5940287,0.002202,-0.237292,0.098778,8.889000,-0.041000,-3.657000
1631513025.7176363,-0.058381,-0.194787,0.096047,8.885000,-0.135000,-3.913000
1631513025.8050756,-0.084654,-0.077505,0.043600,8.886000,-0.241000,-4.085000
1631513025.8970492,-0.058045,0.010966,0.008832,8.789000,-0.293000,-4.088000
1631513026.0084324,-0.003948,0.044279,-0.002703,8.702000,-0.184000,-3.990000
1631513026.0989523,0.008805,0.051269,-0.019535,8.756000,-0.109000,-3.908000
1631513026.1928687,0.005732,0.052670,-0.029229,8.763000,-0.115000,-3.880000
1631513026.3020742,0.009381,0.035754,-0.032974,8.774000,-0.109000,-3.864000
1631513026.4034674,0.005169,0.022855,-0.019842,8.748000,-0.124000,-3.895000
1631513026.5083952,-0.032401,0.010337,0.010980,8.732000,-0.098000,-3.880000
1631513026.6147282,-0.073263,0.026065,0.003987,8.729000,-0.131000,-3.926000
1631513026.6992900,-0.079950,0.019764,-0.016227,8.714000,-0.115000,-3.864000
1631513026.7879541,-0.054980,-0.005353,-0.022707,8.730000,-0.065000,-3.826000
1631513026.9336700,0.014596,-0.022302,-0.033747,8.809000,-0.019000,-3.849000
1631513027.0133610,0.044269,-0.008309,-0.055412,8.760000,0.011000,-3.885000
1631513027.1056190,0.067282,0.034648,-0.081118,8.818000,0.062000,-3.897000
1631513027.1969519,0.098080,0.081314,-0.108585,8.791000,0.153000,-3.897000
1631513027.3048236,0.097430,0.072628,-0.073995,8.775000,0.153000,-3.899000
1631513027.4012341,0.130490,0.054013,-0.035485,8.814000,0.165000,-3.816000
1631513027.5037467,0.093151,0.102663,-0.042577,8.902000,0.217000,-3.694000
1631513027.5835800,0.061307,0.105967,-0.050043,8.797000,0.206000,-3.580000
1631513027.7178121,0.041015,0.031899,-0.051713,8.810000,0.268000,-3.405000
1631513027.7977664,0.027537,-0.000585,-0.080243,8.796000,0.344000,-3.367000
1631513027.8903098,0.020560,-0.079812,-0.100624,8.705000,0.353000,-3.455000
1631513028.0081742,0.025477,-0.205417,-0.033229,8.698000,0.420000,-3.597000
1631513028.1334367,0.011680,-0.124674,0.008181,8.917000,0.365000,-3.859000
1631513028.1976182,0.023091,-0.054938,0.002020,8.836000,0.399000,-3.906000
1631513028.2921166,0.005740,0.022144,0.045534,8.839000,0.359000,-3.921000
1631513028.4057024,0.004786,0.078699,0.112016,8.854000,0.233000,-3.863000
1631513028.5253465,0.044912,0.110395,0.168737,8.917000,0.144000,-3.776000
1631513028.6042867,0.042416,0.111733,0.196814,8.898000,-0.024000,-3.707000
1631513028.6899486,0.026864,0.096024,0.207606,8.906000,-0.168000,-3.579000
1631513028.8035438,-0.005645,0.065094,0.152750,8.853000,-0.425000,-3.527000
1631513028.8999367,-0.053559,0.001878,0.125690,8.836000,-0.564000,-3.496000
1631513028.9902275,-0.041317,-0.056708,0.098685,8.850000,-0.687000,-3.545000
1631513029.0952668,-0.019053,-0.071398,0.054009,8.904000,-0.665000,-3.579000
1631513029.1909723,-0.029153,-0.010684,-0.023674,8.918000,-0.632000,-3.583000
1631513029.3137774,-0.032654,0.040000,-0.079484,8.878000,-0.585000,-3.594000
1631513029.4136970,-0.014015,0.043973,-0.087546,8.899000,-0.521000,-3.561000
1631513029.5085430,-0.002978,0.034590,-0.076965,8.916000,-0.412000,-3.474000
1631513029.5854506,-0.001617,0.033395,-0.075097,8.873000,-0.351000,-3.451000
1631513029.7067406,-0.012015,0.018436,-0.064002,8.928000,-0.264000,-3.393000
1631513029.8004203,-0.034043,-0.009598,-0.025738,8.912000,-0.206000,-3.399000
1631513029.9040556,-0.035381,-0.040321,0.007398,8.888000,-0.189000,-3.455000
1631513029.9938333,-0.054226,-0.097588,0.070529,8.873000,-0.147000,-3.498000
1631513030.1191313,-0.083820,-0.109831,0.110690,8.870000,-0.230000,-3.550000
1631513030.2014694,-0.092493,-0.081725,0.101905,8.892000,-0.261000,-3.620000
1631513030.2913485,-0.089464,-0.040448,0.069134,8.809000,-0.386000,-3.738000
1631513030.4084609,-0.029947,-0.002617,-0.000048,8.758000,-0.410000,-3.779000
1631513030.4903398,0.018746,-0.018574,-0.036584,8.649000,-0.461000,-3.875000
1631513030.5976889,0.081207,-0.071092,-0.047835,8.678000,-0.467000,-3.910000
1631513030.6915832,0.082083,-0.073751,-0.038498,8.785000,-0.361000,-3.925000
1631513030.8016927,0.049666,-0.016848,-0.050940,8.795000,-0.333000,-3.978000
1631513030.9041307,0.046008,0.032545,-0.070290,8.741000,-0.376000,-3.951000
1631513031.0049944,0.086695,0.025976,-0.066606,8.698000,-0.396000,-3.934000
1631513031.0870535,0.127917,0.005814,-0.072486,8.709000,-0.371000,-3.904000
1631513031.2038903,0.108057,0.017677,-0.085400,8.770000,-0.264000,-3.826000
1631513031.3235242,0.079661,0.049732,-0.101992,8.799000,-0.166000,-3.752000
1631513031.4117396,0.058997,0.055024,-0.104691,8.802000,-0.080000,-3.717000
1631513031.4970331,0.055618,0.053193,-0.104164,8.773000,-0.081000,-3.734000
1631513031.5930698,0.058203,0.054305,-0.115078,8.780000,-0.040000,-3.815000
1631513031.7340465,0.044275,0.018858,-0.090959,8.683000,0.074000,-3.678000
1631513031.9020536,0.007314,-0.116351,0.023231,8.782000,0.271000,-3.661000
1631513031.9949338,-0.039013,-0.084409,0.039926,8.881000,0.252000,-3.763000
1631513032.1049361,-0.032914,0.001579,0.013492,8.796000,0.131000,-3.904000
1631513032.1981237,0.005016,0.004247,0.001621,8.780000,0.142000,-3.864000
1631513032.3047817,0.035673,0.031287,-0.018949,8.793000,0.145000,-3.825000
1631513032.3923330,0.070956,-0.009062,0.031138,8.702000,0.043000,-3.896000
1631513032.4875948,0.175245,-0.038684,0.099008,8.728000,-0.001000,-3.828000
1631513032.6232758,0.336906,-0.017852,0.114805,8.752000,-0.253000,-3.973000
1631513032.6963224,0.444399,0.026475,0.053035,8.777000,-0.433000,-4.076000
1631513032.7996063,0.437088,0.061252,0.044207,8.719000,-0.636000,-4.055000
1631513032.8904819,0.298853,0.016363,0.104764,8.749000,-0.812000,-3.924000
1631513033.0142782,0.076867,-0.018076,0.131074,8.742000,-0.954000,-3.819000
1631513033.0913372,-0.104225,-0.030562,0.050629,8.684000,-1.193000,-3.738000
1631513033.2008917,-0.095775,-0.019668,-0.067264,8.835000,-0.630000,-3.731000
1631513033.2941780,-0.006010,0.011793,-0.031308,8.752000,-0.727000,-3.802000
1631513033.4206345,0.042973,0.011134,0.085692,8.573000,-0.677000,-3.664000
1631513033.4938846,0.061341,-0.013247,0.148002,8.655000,-0.842000,-3.669000
1631513033.6042321,-0.055511,0.044005,0.053016,8.762000,-1.171000,-3.727000
1631513033.6841242,-0.070608,0.125811,-0.063680,8.800000,-1.268000,-3.770000
1631513033.8173525,-0.105884,0.216687,-0.116546,8.912000,-1.032000,-3.566000
1631513033.9002955,-0.070192,0.228940,-0.115047,8.878000,-1.030000,-3.462000
1631513033.9919379,0.004917,0.155965,-0.128713,8.865000,-0.749000,-3.182000
1631513034.0945976,-0.052439,0.064866,-0.121945,8.953000,-0.609000,-3.033000
1631513034.2291987,-0.139361,0.007706,-0.069662,9.133000,-0.538000,-3.090000
1631513034.3937082,-0.137598,0.103664,0.000659,9.227000,-0.373000,-2.981000
1631513034.5016799,-0.166597,0.159330,0.016148,9.188000,-0.214000,-2.836000
1631513034.5923567,-0.159056,0.186985,0.029267,9.243000,-0.294000,-2.698000
1631513034.7085934,-0.091197,0.215318,0.002982,9.266000,-0.416000,-2.513000
1631513034.8015332,-0.023213,0.195093,-0.014531,9.253000,-0.336000,-2.257000
1631513034.9037898,-0.004882,0.127439,-0.005494,9.328000,-0.260000,-2.038000
1631513034.9942691,0.006568,0.036033,-0.023225,9.211000,-0.275000,-2.012000
1631513035.1039853,0.057065,-0.050673,-0.059166,9.273000,-0.290000,-2.071000
1631513035.2077901,0.134380,-0.104101,-0.083543,9.293000,-0.152000,-2.175000
1631513035.2867103,0.158993,-0.091742,-0.128859,9.296000,-0.094000,-2.289000
1631513035.3991251,0.197598,-0.062834,-0.158132,9.352000,0.008000,-2.418000
1631513035.5168743,0.200137,-0.029676,-0.163701,9.299000,0.131000,-2.539000
1631513035.5943227,0.175647,-0.026101,-0.142869,9.242000,0.322000,-2.491000
1631513035.6961157,0.104016,-0.042175,-0.119913,9.209000,0.443000,-2.516000
1631513035.8057363,0.061307,-0.047069,-0.140701,9.176000,0.472000,-2.579000
1631513035.8967719,0.018346,-0.022403,-0.148388,9.198000,0.691000,-2.515000
1631513036.0047417,-0.057624,-0.003288,-0.136306,9.186000,0.724000,-2.529000
1631513036.0950208,-0.079570,-0.004099,-0.066754,9.232000,0.826000,-2.537000
1631513036.2036450,-0.074959,-0.029134,0.051613,9.172000,0.877000,-2.539000
1631513036.3230639,-0.009891,0.008743,0.030946,9.257000,0.650000,-2.669000
1631513036.3893921,0.046503,0.038830,0.007918,9.200000,0.672000,-2.655000
1631513036.4948387,0.156666,0.060038,0.017071,9.224000,0.661000,-2.695000
1631513036.5953145,0.276772,0.088935,0.017910,9.165000,0.638000,-2.715000
1631513036.7025266,0.337853,0.102089,-0.016262,9.164000,0.555000,-2.649000
1631513036.7886992,0.346458,0.087858,-0.089536,9.173000,0.530000,-2.514000
1631513036.9124327,0.354338,0.036581,-0.096222,9.192000,0.578000,-2.412000
1631513037.0042443,0.318265,0.000881,-0.112254,9.233000,0.647000,-2.313000
1631513037.1185682,0.200057,-0.030896,-0.045424,9.309000,0.682000,-2.263000
1631513037.2004302,0.065309,-0.006912,0.037920,9.361000,0.680000,-2.233000
1631513037.3039253,0.012847,0.069549,0.084627,9.410000,0.603000,-2.250000
1631513037.3897069,-0.003438,0.127935,0.130667,9.374000,0.502000,-2.145000
1631513037.5037599,-0.037977,0.176410,0.107685,9.396000,0.370000,-2.060000
1631513037.6017432,-0.095273,0.216465,0.019895,9.367000,0.350000,-1.767000
1631513037.6976848,-0.127691,0.239350,-0.078258,9.357000,0.369000,-1.596000
1631513037.7985845,-0.162368,0.242669,-0.176386,9.388000,0.531000,-1.361000
1631513037.9271462,-0.195194,0.160612,-0.190516,9.365000,0.719000,-1.083000
1631513037.9938443,-0.177119,0.095559,-0.121466,9.390000,0.751000,-1.020000
1631513038.0954871,-0.093151,-0.008589,-0.003162,9.430000,0.747000,-0.999000
1631513038.1929715,-0.040697,-0.026818,0.033163,9.481000,0.787000,-1.019000
1631513038.3315144,-0.026696,-0.014124,0.054658,9.475000,0.888000,-0.994000
1631513038.4046383,-0.064058,-0.032473,0.111339,9.444000,0.813000,-0.947000
1631513038.5004961,-0.128897,-0.103169,0.241197,9.495000,0.570000,-1.001000
1631513038.6037049,-0.155909,-0.149968,0.351084,9.522000,0.270000,-1.107000
1631513038.7038474,-0.132228,-0.137799,0.445822,9.562000,-0.146000,-1.361000
1631513038.8032219,-0.097890,-0.078072,0.468317,9.566000,-0.417000,-1.442000
1631513038.8949401,-0.069851,-0.001576,0.421295,9.512000,-0.798000,-1.498000
1631513039.0144274,-0.018463,0.091790,0.314600,9.452000,-1.206000,-1.425000
1631513039.1268406,-0.003275,0.150513,0.261083,9.424000,-1.531000,-1.394000